Timestamp(us), ax, ay, az, gx, gy, gz
3004768524,-15102,3836,-673,-72,-168,-114
3004788513,-15229,3650,-580,-77,-99,-160
3004808502,-15798,3574,-403,-86,-81,-191
3004828491,-15777,3599,72,-99,-76,-223
3004848480,-16426,3548,91,-116,-287,-219
3004868469,-17170,3580,4,-141,-414,-196
3004888458,-17268,3398,292,-154,-408,-189
3004908447,-17820,3024,802,-156,-540,-176
3004928436,-17242,3290,1665,-148,-654,-158
3004948425,-16695,3619,1692,-121,-930,-89
3004968414,-16776,3923,1576,-111,-1037,-15
3004988403,-16408,3932,1537,-93,-903,4
3005008392,-16612,3569,1959,-77,-790,1
3005028381,-16856,3390,2558,-65,-729,15
3005048370,-16866,3311,2622,-47,-727,46
3005068359,-16532,3263,2755,-3,-716,71
3005088348,-16532,3263,2755,17,-700,100
3005108337,-16221,3148,2923,25,-752,129
3005128326,-16024,3237,2918,25,-752,129
3005148315,-15884,3469,2965,13,-659,153
3005168304,-15366,3652,2916,-18,-476,163
3005188293,-14962,3502,2629,-39,-335,148
3005208282,-14550,3276,2812,-62,-290,108
3005228271,-14453,3023,3141,-107,-314,66
3005248260,-15016,3131,3219,-157,-317,19
3005268249,-15631,3361,2845,-202,-305,-31
3005288238,-16364,3645,2617,-225,-340,-55
3005308227,-17614,3713,2614,-208,-338,-25
3005328216,-18274,3491,3578,-180,-321,69
3005348205,-18815,3442,3987,-228,-160,232
3005368194,-18738,3799,3238,-314,102,391
3005388183,-17658,4257,2073,-385,419,515
3005408172,-16477,4472,1369,-469,786,569
3005428161,-14792,4576,1593,-544,978,568
3005448150,-14564,3587,2242,-552,1056,532
3005468139,-14952,3230,3172,-544,1294,432
3005488128,-15364,3315,3289,-541,1483,296
3005508117,-15486,3405,3022,-555,1419,144
3005528106,-14669,4222,4219,-542,1042,20
3005548095,-14509,3890,4196,-506,492,-5
3005568084,-15128,3101,3049,-495,96,-2
3005588073,-15721,3634,2339,-478,-1,-31
3005608062,-16284,3788,1142,-470,212,-74
3005628051,-16004,3770,966,-487,457,-142
3005648040,-14956,4443,2351,-479,383,-184
3005668029,-14541,3570,2473,-443,70,-139
3005688018,-15476,2865,1755,-447,-207,-107
3005708007,-15998,3293,1472,-448,-269,-134
3005727996,-15756,3152,1588,-460,-233,-185
3005747985,-15246,2909,2406,-474,-213,-220
3005767974,-15246,3226,2957,-451,-220,-242
3005787963,-15897,3312,2814,-406,-210,-279
3005807952,-15827,3388,2804,-351,-171,-323
3005827941,-15824,3462,2795,-293,-159,-342
3005847930,-16086,3280,2700,-256,-130,-335
3005867919,-16555,3659,3513,-220,-69,-320
3005887908,-16914,3585,3882,-185,-67,-296
3005907897,-17173,3380,3652,-150,-154,-258
3005927886,-17362,2935,2972,-114,-230,-231
3005947875,-17295,2905,2428,-69,-188,-214
3005967864,-17224,3093,2517,-33,-30,-211
3005987854,-16944,2851,2606,-20,90,-228
3006007843,-16343,2601,3063,-2,97,-204
3006027832,-15985,2435,3601,19,22,-137
3006047821,-16388,2632,3569,31,-44,-86
3006067810,-16875,2742,2901,16,2,-66
3006087799,-17076,2684,2661,-12,96,-81
3006107788,-16773,2420,2679,-1,33,-95
3006127777,-17091,2499,2130,63,-118,-78
3006147766,-17679,2739,1224,125,-45,-49
3006167755,-17365,3049,1049,128,147,-33
3006187744,-16786,3268,1303,93,248,21
3006207733,-16777,3302,1313,60,240,85
3006227722,-16637,3388,1412,46,214,121
3006247711,-16330,3484,1593,37,173,131
3006267700,-16182,3433,1629,11,145,125
3006287689,-15968,3219,2079,-16,147,111
3006307678,-15841,2968,2657,-22,122,100
3006327667,-15894,2797,2470,-2,135,102
3006347656,-15804,2811,1962,27,178,116
3006367645,-16031,2617,1297,43,267,110
3006387634,-15849,2425,1246,33,420,75
3006407623,-15235,2316,2125,5,515,50
3006427612,-15183,2335,2726,5,543,55
3006447601,-15542,2278,2493,0,583,71
3006467590,-15696,2217,1959,-46,642,76
3006487579,-16109,2004,1928,-106,709,69
3006507568,-16020,1725,2705,-176,748,31
3006527557,-15634,1666,4157,-229,646,-16
3006547546,-15323,1680,4574,-210,466,-44
3006567535,-15285,1752,4323,-163,319,-56
3006587524,-15193,1855,4264,-103,225,-77
3006607513,-15239,1883,4604,-41,142,-104
3006627502,-15765,1702,4709,35,71,-125
3006647491,-16048,1594,4527,142,40,-146
3006667480,-16206,1557,4340,251,93,-154
3006687469,-16223,1535,4280,352,175,-144
3006707458,-16081,1516,3857,453,304,-129
3006727447,-15936,1562,2929,542,491,-121
3006747436,-16023,1593,2112,619,719,-133
3006767425,-15719,1852,1564,691,939,-165
3006787414,-15477,2213,751,755,1124,-205
3006807403,-15304,2433,-173,798,1290,-258
3006827392,-15098,2379,-699,829,1324,-326
3006847381,-14922,2103,-774,871,1167,-390
3006867370,-14829,1735,-927,908,877,-445
3006887359,-14968,1546,-1762,925,545,-494
3006907348,-15982,1091,-2681,908,313,-537
3006927337,-16993,392,-2867,867,212,-573
3006947326,-17448,-363,-2430,836,164,-590
3006967315,-17417,-694,-2224,828,98,-572
3006987304,-17943,-511,-2946,801,99,-496
3007007293,-18088,-312,-3539,769,180,-417
3007027282,-18060,-358,-3680,739,202,-352
3007047271,-17753,-723,-3112,724,113,-290
3007067260,-17578,-1163,-2462,727,-108,-223
3007087249,-18132,-1509,-2615,696,-190,-141
3007107238,-17663,-1414,-2460,633,-143,-80
3007127227,-17378,-1208,-2418,576,-97,-45
3007147216,-17129,-815,-2813,548,-23,-22
3007167205,-17100,-618,-3207,558,20,-7
3007187194,-16938,-774,-2960,605,5,8
3007207183,-16672,-945,-2921,624,-88,40
3007227172,-16525,-1039,-3128,591,-196,80
3007247161,-16154,-1039,-2925,530,-241,110
3007267150,-15936,-1002,-2473,464,-263,111
3007287139,-15762,-938,-2278,421,-288,86
3007307128,-15583,-868,-2181,400,-315,51
3007327117,-15586,-827,-1942,386,-345,18
3007347106,-15642,-883,-1879,376,-320,-16
3007367095,-15586,-901,-1843,365,-275,-54
3007387084,-15779,-969,-1800,365,-259,-97
3007407073,-16094,-1163,-1676,381,-259,-129
3007427062,-16345,-1316,-1586,400,-265,-143
3007447052,-16509,-1531,-1369,415,-230,-143
3007467041,-16542,-1617,-1375,421,-162,-133
3007487030,-16472,-1533,-1411,414,-99,-113
3007507019,-16392,-1392,-1303,416,-75,-103
3007527008,-16320,-1350,-1235,421,-66,-102
3007546997,-16200,-1344,-1160,420,-30,-105
3007566986,-16162,-1391,-1074,421,-3,-114
3007586975,-16211,-1395,-1153,414,9,-120
3007606964,-16278,-1325,-1121,397,13,-118
3007626953,-16364,-1280,-1100,378,15,-121
3007646942,-16425,-1267,-1209,363,16,-129
3007666931,-16427,-1317,-1096,359,10,-126
3007686920,-16426,-1360,-1119,360,26,-115
3007706909,-16493,-1414,-1346,354,83,-104
3007726898,-16417,-1472,-1422,349,150,-100
3007746887,-16302,-1527,-1510,344,176,-94
3007766876,-16200,-1483,-1677,327,155,-84
3007786865,-16313,-1489,-1732,304,121,-77
3007806854,-16360,-1482,-1788,284,111,-77
3007826843,-16464,-1466,-1888,263,139,-84
3007846832,-16462,-1532,-1929,234,191,-94
3007866821,-16487,-1594,-1993,193,211,-99
3007886810,-16593,-1654,-1945,156,160,-98
3007906799,-16680,-1692,-2054,125,88,-84
3007926788,-16763,-1684,-2108,94,65,-64
3007946777,-16696,-1640,-2085,63,85,-49
3007966766,-16488,-1634,-2135,29,119,-47
3007986755,-16219,-1671,-2087,2,144,-58
3008006744,-16042,-1584,-2138,-29,121,-75
3008026733,-16045,-1487,-2432,-57,85,-89
3008046722,-16290,-1563,-2779,-79,76,-99
3008066711,-16687,-1846,-2880,-104,112,-99
3008086700,-16780,-2035,-2849,-130,178,-84
3008106689,-16698,-2142,-2688,-155,224,-55
3008126678,-16499,-2364,-2365,-164,200,-23
3008146667,-16601,-2674,-2320,-163,120,6
3008166656,-17024,-2963,-2209,-165,36,19
3008186645,-17036,-3050,-1847,-162,-35,29
3008206634,-16876,-3077,-1560,-162,-100,59
3008226623,-16675,-3082,-1454,-171,-88,95
3008246612,-16234,-3041,-817,-189,-50,105
3008266601,-15953,-2729,-103,-179,-97,99
3008286590,-15925,-2296,-54,-128,-139,94
3008306579,-15850,-1832,-334,-50,-117,85
3008326568,-15689,-1494,-480,34,-4,66
3008346557,-15297,-1193,-487,121,161,38
3008366546,-15274,-1071,-983,201,261,18
3008386535,-15521,-1254,-1811,278,335,5
3008406524,-15506,-1552,-1966,330,393,-8
3008426513,-15365,-1693,-2233,340,427,-20
3008446502,-15313,-1658,-2609,320,454,-37
3008466491,-15133,-1625,-2681,293,431,-70
3008486480,-15225,-1748,-2742,270,323,-119
3008506469,-15571,-1889,-3004,252,216,-169
3008526458,-15835,-1984,-3362,234,176,-222
3008546447,-15865,-1995,-3533,218,183,-266
3008566436,-15775,-1896,-3290,203,188,-284
3008586425,-15726,-1836,-3138,204,163,-281
3008606414,-15534,-1903,-3185,222,125,-270
3008626403,-15664,-2192,-3295,241,83,-262
3008646392,-15827,-2317,-3699,253,95,-268
3008666381,-15835,-1852,-4638,239,217,-287
3008686370,-15890,-1570,-5345,191,313,-321
3008706359,-16030,-1556,-5764,137,160,-356
3008726348,-16817,-1346,-6449,64,-97,-354
3008746337,-17617,-1124,-7048,-91,-168,-316
3008766326,-17854,-1110,-7268,-302,-132,-275
3008786315,-17453,-933,-7000,-520,-194,-237
3008806304,-17581,-468,-6971,-735,-353,-191
3008826293,-18203,10,-7175,-927,-533,-148
3008846282,-18286,-229,-6015,-1070,-801,-99
3008866271,-18555,-952,-4485,-1214,-1096,-5
3008886260,-18525,-1319,-3659,-1336,-1308,106
3008906250,-18364,-1374,-3686,-1395,-1331,193
3008926239,-17934,-1506,-4156,-1408,-1257,235
3008946228,-17386,-1911,-3838,-1380,-1390,261
3008966217,-17118,-3006,-2626,-1317,-1891,319
3008986206,-17156,-3465,-1180,-1263,-2602,473
3009006195,-17918,-3248,-475,-1298,-3014,702
3009026184,-17373,-2685,-514,-1362,-3135,855
3009046173,-16223,-2605,656,-1376,-3314,951
3009066162,-15043,-2749,2958,-1328,-3536,992
3009086151,-13647,-3134,5543,-1240,-3714,992
3009106140,-13921,-3810,6764,-1122,-3698,961
3009126129,-14904,-4182,6273,-1019,-3330,879
3009146118,-13254,-3944,7565,-934,-2872,749
3009166107,-11561,-4231,9382,-827,-2558,616
3009186096,-11249,-4549,9249,-705,-2328,542
3009206085,-11649,-4756,8697,-575,-2069,452
3009226074,-11360,-5143,9214,-462,-1811,319
3009246063,-11444,-5622,9888,-414,-1360,256
3009266052,-11696,-5368,9785,-401,-652,253
3009286041,-11400,-5081,9943,-410,-138,198
3009306030,-9856,-4885,11241,-415,-110,128
3009326019,-9894,-4287,10943,-392,-230,147
3009346008,-11039,-3673,10259,-378,-333,149
3009365997,-10782,-3630,10763,-378,-489,95
3009385986,-10080,-3748,11101,-368,-543,87
3009405975,-10425,-3404,11418,-321,-491,115
3009425964,-11132,-3070,12120,-250,-412,109
3009445953,-11252,-2944,13055,-213,-326,81
3009465942,-11023,-2607,12823,-183,-357,26
3009485931,-10392,-2111,12237,-140,-392,-15
3009505920,-10559,-1878,12927,-78,-277,29
3009525909,-11568,-1785,13710,-52,-189,66
3009545898,-11408,-1775,13842,-73,-165,70
3009565887,-11348,-1915,13380,-102,-174,77
3009585876,-10786,-1792,12694,-110,-237,97
3009605865,-10951,-1692,12522,-110,-269,130
3009625854,-11387,-1752,13081,-104,-230,155
3009645843,-11432,-1803,13448,-93,-192,137
3009665832,-11010,-1795,13551,-105,-124,116
3009685821,-10826,-1869,13613,-119,-42,121
3009705810,-10824,-1875,13431,-115,24,108
3009725799,-10437,-1752,13339,-88,-24,52
3009745788,-10157,-1771,13361,-57,-133,-5
3009765777,-10160,-1946,13571,-46,-173,-28
3009785766,-10298,-2100,13570,-73,-171,-23
3009805755,-10463,-2195,12756,-118,-197,-22
3009825744,-10135,-2466,11933,-153,-244,-22
3009845733,-10917,-2855,12936,-108,-170,74
3009865722,-11145,-3093,13739,-33,-58,177
3009885711,-11621,-3170,13633,0,56,270
3009905700,-11484,-3032,13655,-23,293,365
3009925689,-10702,-2498,13008,-98,684,470
3009945678,-10236,-1266,11008,-152,999,464
3009965667,-9179,-244,11832,-47,772,304
3009985656,-9550,-353,14473,151,249,124
3010005645,-10668,-770,14613,250,101,-18
3010025634,-11197,-749,13388,235,239,-95
3010045623,-11049,-752,12929,147,371,-110
3010065612,-10584,-878,12968,54,290,-133
3010085601,-10598,-983,12903,-7,27,-156
3010105590,-11175,-1258,12698,-53,-205,-146
3010125579,-11273,-1544,12406,-92,-318,-117
3010145568,-11694,-1861,12395,-133,-347,-64
3010165557,-11911,-2051,12571,-172,-335,-25
3010185546,-11536,-2034,12461,-169,-354,-12
3010205535,-11091,-2049,12113,-133,-362,10
3010225524,-10905,-2168,12486,-73,-307,42
3010245513,-11184,-2138,12703,-14,-259,55
3010265502,-11120,-2031,12478,16,-206,32
3010285491,-10597,-2172,12752,16,-130,16
3010305480,-10380,-2320,12854,-6,-68,16
3010325469,-10171,-2036,12514,-24,-64,21
3010345458,-10172,-1822,12574,-32,-57,33
3010365447,-10303,-1749,12729,-47,-35,51
3010385437,-10485,-1857,12895,-60,-66,39
3010405426,-10555,-1806,12974,-78,-67,9
3010425415,-10473,-1771,13079,-105,18,-2
3010445404,-10270,-1747,12748,-130,87,2
3010465393,-10201,-1609,12458,-132,68,10
3010485382,-10695,-1802,12778,-111,34,-3
3010505371,-10871,-2057,13058,-90,-16,-32
3010525360,-10547,-1995,12908,-69,-43,-62
3010545349,-10466,-1865,12857,-55,-11,-76
3010565338,-10333,-2043,12934,-59,35,-65
3010585327,-10582,-2325,12784,-74,15,-54
3010605316,-10590,-2442,12690,-83,-50,-66
3010625305,-10656,-2658,12681,-100,-110,-78
3010645294,-10654,-3104,12302,-130,-116,-54
3010665283,-10670,-3590,11812,-155,-60,24
3010685272,-11616,-3532,12094,-134,50,155
3010705261,-11592,-3489,13211,-85,155,255
3010725250,-10732,-3071,14493,-62,217,343
3010745239,-10432,-2390,13971,-69,306,439
3010765228,-10194,-1582,11696,-63,484,449
3010785217,-11034,-1097,12001,16,577,354
3010805206,-10645,-975,14805,155,507,194
3010825195,-10454,-1145,15088,275,329,20
3010845184,-11339,-1202,13606,305,327,-83
3010865173,-10803,-1310,12851,271,397,-147
3010885162,-10149,-1534,12784,218,330,-167
3010905151,-10523,-1772,12579,155,170,-147
3010925140,-11247,-1856,12083,95,28,-139
3010945129,-11330,-1817,11669,41,-42,-135
3010965118,-11380,-1743,11405,-8,-70,-109
3010985107,-11617,-1877,11547,-43,-83,-80
3011005096,-11683,-1935,11832,-48,-110,-59
3011025085,-11830,-1909,11884,-46,-114,-34
3011045074,-11891,-1738,11686,-37,-104,-30
3011065063,-11680,-1710,11721,-18,-88,-41
3011085052,-11524,-1735,11872,-4,-80,-46
3011105041,-11387,-1696,11793,-9,-112,-58
3011125030,-11433,-1440,12092,-32,-223,-90
3011145019,-12012,-1175,13044,-57,-339,-118
3011165008,-12767,-1177,14762,-73,-357,-84
3011184997,-13724,-1409,16662,-17,-354,18
3011204986,-13921,-715,16558,160,-460,164
3011224975,-14425,99,15208,417,-597,320
3011244964,-14204,126,15214,704,-552,416
3011264953,-12290,-17,15871,941,-415,438
3011284942,-10547,245,14456,1102,-325,449
3011304931,-7430,1299,11274,1189,-315,399
3011324920,-2985,3370,5278,1146,-598,173
3011344909,-2469,2506,1545,772,-1020,-89
3011364898,-1424,-4687,9296,-57,-1357,-161
3011384887,-975,-6828,14923,-1177,-2071,-75
3011404876,-8821,-6750,16589,-2126,-2900,-106
3011424865,-11417,-3581,13245,-2292,-2509,99
3011444854,-12609,-4077,18311,-1444,-1115,359
3011464843,-18375,-4148,24574,61,189,387
3011484832,-13720,-149,22929,1371,1198,246
3011504821,-7375,4320,13184,1914,1500,95
3011524810,-3839,2692,8997,1507,1453,-80
3011544799,221,-1312,10085,288,872,-108
3011564788,-3,-3533,12688,-1146,-706,-127
3011584777,-4590,-3432,13628,-1967,-2076,-167
3011604766,-9904,-2544,8395,-1813,-1849,159
3011624755,-16065,-4864,18318,-727,-316,228
3011644744,-11983,-2970,25358,625,1067,-21
3011664733,-5618,290,19319,1293,1317,-252
3011684722,-2276,-106,15421,999,998,-467
3011704711,-2511,-730,12491,38,543,-411
3011724700,-5350,-2300,12069,-841,-268,-362
3011744689,-8174,-2802,9520,-1124,-780,-234
3011764678,-14500,-4436,14478,-665,-455,31
3011784667,-13309,-4076,20617,72,347,79
3011804656,-9233,-1853,18234,445,606,30
3011824645,-9822,-2110,17293,548,512,-19
3011844635,-7824,-2442,16059,495,631,53
3011864624,-7746,-2663,14110,313,340,201
3011884613,-7777,-2650,12086,107,102,259
3011904602,-6172,-2186,10586,-42,237,326
3011924591,-7140,-2813,12836,-70,343,352
3011944580,-7952,-2884,14294,-64,570,296
3011964569,-7411,-2809,14407,-54,922,206
3011984558,-7151,-3238,14130,-39,1214,96
3012004547,-7276,-3222,13569,-31,1462,-7
3012024536,-8474,-3004,12911,0,1688,-112
3012044525,-9049,-2590,12815,54,1905,-255
3012064514,-9485,-2920,12954,116,1969,-395
3012084503,-10013,-3003,12046,191,1943,-481
3012104492,-11883,-2626,11576,284,1918,-508
3012124481,-13334,-2854,11736,362,2117,-529
3012144470,-12550,-2724,11203,423,2189,-576
3012164459,-12612,-2733,10206,519,1933,-618
3012184448,-13267,-2675,8901,580,1775,-591
3012204437,-14292,-2588,8199,603,1793,-527
3012224426,-15222,-1834,7631,607,1850,-519
3012244415,-15299,-1125,7129,657,1782,-600
3012264404,-15303,-1148,6723,726,1656,-679
3012284393,-15993,-1912,6188,750,1597,-700
3012304382,-16089,-1977,5303,707,1576,-683
3012324371,-16197,-1380,4531,628,1476,-664
3012344360,-16304,-1167,4279,527,1310,-650
3012364349,-16432,-845,3404,414,1064,-616
3012384338,-17396,-526,2427,305,778,-543
3012404327,-18699,-87,1484,182,546,-453
3012424316,-19968,721,-665,14,396,-386
3012444305,-20346,711,-812,-237,187,-380
3012464294,-20412,-1614,5075,-547,-218,-397
3012484283,-22886,-4722,13694,-940,-594,-164
3012504272,-24504,-3639,15768,-1403,-556,489
3012524261,-25833,1815,9713,-1628,-254,1393
3012544250,-25075,5092,4677,-1258,354,2197
3012564239,-20857,6423,-986,-544,509,2812
3012584228,-23253,6589,-4368,42,580,2911
3012604217,-15690,9151,7314,759,1308,2037
3012624206,-4630,9308,13291,1401,1407,929
3012644195,1658,1126,7795,1759,965,-300
3012664184,4091,-9528,11344,1462,-576,-1493
3012684173,-10686,-18303,6574,138,-2127,-1671
3012704162,-25584,-16502,-3545,-1517,-2218,-705
3012724151,-21182,-6710,-3518,-2655,-2144,688
3012744140,-26032,-3534,-3509,-2164,-2276,1969
3012764129,-24013,1275,-132,-845,-196,2250
3012784118,-9863,7520,8714,575,1460,1123
3012804107,-6817,4193,16068,1924,1877,-229
3012824096,-3040,-5427,19622,2217,2120,-1304
3012844085,-8990,-13626,5270,1345,2758,-937
3012864074,-11570,-11439,-6798,-41,3730,-181
3012884063,-10116,-6251,-10352,-1138,3536,-120
3012904052,-13367,-3780,-6288,-1475,2503,105
3012924041,-19522,-913,367,-848,1581,474
3012944030,-20831,734,-98,73,1276,532
3012964019,-18047,228,-2057,819,1574,263
3012984008,-14428,-817,1596,1267,1479,-256
3013003997,-8470,-2655,6608,1517,527,-811
3013023986,-9966,-4014,3243,1388,-513,-967
3013043975,-15823,-4132,-3148,1010,-631,-970
3013063964,-14977,-3001,-6221,740,-222,-965
3013083953,-17495,-2805,-6302,573,-432,-916
3013103942,-20516,-2058,-3376,527,-316,-784
3013123931,-19433,-798,-1035,577,204,-719
3013143920,-18192,-342,-1357,747,355,-683
3013163909,-18741,-678,-2478,957,307,-669
3013183898,-18929,-1224,-2585,1103,404,-691
3013203887,-18072,-1743,-1443,1188,629,-709
3013223876,-17669,-2028,-536,1201,936,-658
3013243865,-18071,-2242,-1068,1204,1270,-564
3013263854,-18039,-2370,-2996,1240,1393,-441
3013283843,-18399,-2479,-5417,1233,1355,-278
3013303833,-18325,-2644,-6500,1148,1210,-134
3013323822,-17655,-2926,-6110,1043,1000,-82
3013343811,-17167,-3428,-5185,956,835,-105
3013363800,-17063,-3919,-4840,873,727,-125
3013383789,-16506,-4277,-5121,804,627,-96
3013403778,-15666,-4375,-5306,763,458,31
3013423767,-16167,-4363,-5324,679,401,262
3013443756,-16568,-4069,-5291,553,423,451
3013463745,-15947,-3632,-5220,471,334,519
3013483734,-15117,-3183,-5102,422,176,548
3013503723,-15039,-2800,-5092,384,11,584
3013523712,-15489,-2619,-4947,345,-25,596
3013543701,-15093,-2139,-4606,305,70,559
3013563690,-14300,-1897,-4450,267,136,489
3013583679,-13927,-2165,-4448,240,111,436
3013603668,-14151,-2492,-4717,207,104,429
3013623657,-14301,-2510,-5245,161,166,450
3013643646,-13964,-2740,-5095,117,196,438
3013663635,-14141,-2860,-5970,56,203,426
3013683624,-14688,-2574,-7802,-25,210,424
3013703613,-14061,-2158,-9367,-75,191,410
3013723602,-14005,-2103,-10113,-133,37,377
3013743591,-13901,-2778,-9787,-256,-62,282
3013763580,-13533,-3287,-9000,-500,-24,156
3013783569,-13987,-3255,-8388,-824,-18,12
3013803558,-13671,-3269,-6854,-1078,-96,-106
3013823547,-14425,-3042,-5363,-1206,-362,-142
3013843536,-15698,-2629,-4142,-1229,-650,-89
3013863525,-16811,-2223,-2673,-1170,-782,26
3013883514,-17495,-2169,-1089,-1030,-744,135
3013903503,-17489,-2447,-556,-835,-561,211
3013923492,-17396,-2591,-513,-636,-353,259
3013943481,-17426,-2240,-282,-441,-149,272
3013963470,-17264,-1896,-447,-231,69,260
3013983459,-17525,-1683,-977,-35,283,247
3014003448,-17868,-1649,-991,116,550,235
3014023437,-17371,-1417,-800,240,844,235
3014043426,-16247,-1015,-810,385,922,266
3014063415,-15604,-792,-1352,538,810,326
3014083404,-15746,-518,-1929,655,731,410
3014103393,-16570,-333,-2884,737,844,477
3014123382,-16436,-541,-3973,813,1143,506
3014143371,-15597,-956,-5051,871,1375,519
3014163360,-15051,-1410,-5598,894,1508,511
3014183349,-13997,-1857,-5162,885,1705,529
3014203338,-12668,-2015,-5597,843,1868,589
3014223327,-11889,-2002,-6920,788,1907,615
3014243316,-11305,-1747,-8599,737,1894,586
3014263305,-10784,-1750,-9963,679,1872,496
3014283294,-9432,-1773,-9775,633,1709,372
3014303283,-8458,-1504,-9166,603,1449,270
3014323272,-8266,-1184,-9554,550,1142,191
3014343261,-8410,-1197,-10275,494,858,88
3014363250,-8319,-1045,-11131,445,615,-34
3014383239,-8159,-821,-12280,407,509,-155
3014403228,-7653,-775,-13140,348,562,-277
3014423217,-7309,-1207,-13295,247,597,-391
3014443206,-7494,-1933,-13265,115,441,-509
3014463195,-7728,-2668,-13142,14,100,-619
3014483184,-8372,-2842,-13350,-53,-152,-675
3014503173,-11105,-2658,-15101,-82,-185,-714
3014523162,-13368,-2326,-17347,-51,154,-733
3014543151,-15024,-2151,-19006,-41,639,-700
3014563140,-16641,-2213,-19427,-120,893,-648
3014583129,-15652,-2089,-17793,-260,827,-580
3014603118,-14156,-2046,-15544,-418,361,-521
3014623107,-13469,-2119,-14376,-584,-109,-411
3014643096,-13297,-2081,-13542,-746,-248,-247
3014663085,-11188,-2331,-10940,-847,-316,-121
3014683074,-10540,-2310,-9825,-851,-480,-39
3014703063,-10443,-1855,-9760,-755,-628,-38
3014723052,-9687,-1313,-9647,-588,-683,-91
3014743041,-9830,-1174,-10424,-376,-591,-119
3014763031,-10501,-1305,-11657,-205,-227,-128
3014783020,-10598,-1636,-11907,-108,217,-162
3014803009,-10541,-1963,-11789,-32,495,-225
3014822998,-10624,-2202,-11973,36,569,-301
3014842987,-10447,-2189,-12378,67,536,-354
3014862976,-10383,-2254,-12723,57,534,-341
3014882965,-10535,-2480,-12625,16,549,-286
3014902954,-10363,-2530,-12465,-42,515,-237
3014922943,-9818,-2396,-12327,-83,327,-213
3014942932,-9392,-2305,-12155,-114,12,-205
3014962921,-9362,-2221,-11798,-126,-297,-193
3014982910,-9509,-2039,-11547,-120,-561,-184
3015002899,-9874,-1981,-11394,-89,-753,-182
3015022888,-10808,-2219,-11676,-56,-800,-192
3015042877,-11363,-2351,-11826,-33,-651,-219
3015062866,-11164,-2322,-11676,-21,-449,-259
3015082855,-11090,-2281,-11638,-6,-317,-283
3015102844,-11186,-2297,-11685,12,-278,-289
3015122833,-11358,-2337,-11830,14,-247,-281
3015142822,-11637,-2412,-11961,-3,-177,-270
3015162811,-11771,-2603,-11872,-34,-98,-278
3015182800,-11590,-2795,-11750,-69,-48,-294
3015202789,-11492,-2891,-11588,-103,-39,-301
3015222778,-11496,-3028,-11569,-134,-45,-290
3015242767,-11348,-3070,-11467,-170,-39,-257
3015262756,-11550,-3051,-11465,-193,-62,-225
3015282745,-11845,-3029,-11563,-204,-83,-215
3015302734,-11850,-2972,-11522,-209,-98,-227
3015322723,-11668,-2856,-11301,-208,-121,-251
3015342712,-11211,-2880,-10949,-197,-82,-234
3015362701,-11063,-2808,-10903,-192,10,-166
3015382690,-11757,-2918,-11217,-181,159,-99
3015402679,-11950,-3006,-11398,-176,384,-56
3015422668,-11554,-3060,-11333,-168,624,-38
3015442657,-10786,-2998,-11401,-140,754,-25
3015462646,-10473,-3120,-11699,-101,782,7
3015482635,-11185,-3193,-12256,-72,883,58
3015502624,-11811,-2985,-13127,-38,1097,81
3015522613,-10888,-2784,-13654,10,1208,66
3015542602,-9095,-3180,-12596,52,1042,43
3015562591,-8531,-3596,-11480,43,756,45
3015582580,-8944,-3395,-11869,0,537,56
3015602569,-8597,-2912,-12499,-22,321,48
3015622558,-8411,-2663,-13026,-7,135,46
3015642547,-8459,-2650,-12631,11,-53,36
3015662536,-8185,-2451,-11823,20,-277,13
3015682525,-8168,-2234,-11407,45,-488,3
3015702514,-9161,-1814,-12388,81,-515,10
3015722503,-10446,-1261,-14338,141,-378,2
3015742492,-9712,-1651,-13316,212,-327,-51
3015762481,-9993,-2081,-12380,252,-431,-68
3015782470,-11227,-2056,-12846,227,-366,-12
3015802459,-11156,-1890,-13509,167,-191,54
3015822448,-10750,-2058,-13478,112,-55,121
3015842437,-10284,-2319,-12284,54,31,188
3015862426,-9818,-2189,-11360,25,-39,227
3015882415,-9798,-2055,-11507,58,-155,241
3015902404,-10097,-2105,-12266,132,-187,232
3015922393,-10304,-2277,-12796,192,-136,212
3015942382,-9987,-2469,-12742,214,5,190
3015962371,-9356,-2574,-12350,220,131,171
3015982360,-8890,-2449,-12421,218,166,158
3016002349,-9081,-2446,-13139,214,161,143
3016022338,-9301,-2858,-13582,189,163,99
3016042327,-9158,-3326,-13212,132,169,43
3016062316,-9114,-3533,-12774,72,148,-5
3016082305,-8898,-3450,-12255,34,56,-41
3016102294,-8957,-3494,-12231,31,-84,-59
3016122283,-9109,-3550,-12051,54,-203,-79
3016142272,-9125,-3654,-11735,93,-286,-106
3016162261,-9216,-3624,-11414,134,-336,-134
3016182250,-9513,-3348,-11192,188,-375,-172
3016202239,-9963,-2942,-11233,260,-407,-207
3016222229,-10727,-2723,-11598,335,-398,-228
3016242218,-10915,-2782,-11791,383,-329,-218
3016262207,-10922,-3052,-11666,401,-262,-187
3016282196,-11273,-3258,-11674,396,-242,-157
3016302185,-11563,-3239,-11932,375,-243,-144
3016322174,-11643,-3232,-12157,346,-222,-136
3016342163,-11483,-3433,-12195,312,-157,-122
3016362152,-11264,-3688,-12118,263,-68,-96
3016382141,-10977,-3879,-11910,207,-3,-70
3016402130,-10655,-3959,-11782,165,-39,-62
3016422119,-10548,-4132,-11802,153,-134,-63
3016442108,-10634,-4399,-11836,149,-184,-64
3016462097,-10688,-4603,-11731,140,-183,-75
3016482086,-10569,-4672,-11677,133,-148,-74
3016502075,-10705,-4747,-11803,125,-118,-52
3016522064,-10952,-4858,-11893,117,-117,-32
3016542053,-10998,-4844,-11693,103,-114,-9
3016562042,-11010,-4701,-11470,81,-100,15
3016582031,-10953,-4575,-11455,62,-72,35
3016602020,-10674,-4537,-11379,46,-37,46
3016622009,-10591,-4624,-11261,28,-26,45
3016641998,-10730,-4762,-11029,12,-41,22
3016661987,-10759,-4888,-10840,-2,-58,-7
3016681976,-10922,-4893,-10766,-14,-81,-39
3016701965,-11019,-4781,-10562,-15,-82,-65
3016721954,-10988,-4571,-10392,-9,-71,-78
3016741943,-11016,-4275,-10471,14,-80,-79
3016761932,-10982,-4142,-10422,49,-90,-84
3016781921,-10904,-3956,-10236,92,-111,-109
3016801910,-11025,-3670,-10235,135,-103,-144
3016821899,-10735,-3496,-10239,178,-87,-185
3016841888,-10071,-3374,-9834,233,-133,-221
3016861877,-10010,-3359,-9555,325,-266,-255
3016881866,-10375,-3475,-9904,430,-367,-294
3016901855,-10544,-3890,-9966,519,-391,-337
3016921844,-10380,-4474,-9583,598,-433,-391
3016941833,-10630,-5267,-9229,672,-534,-443
3016961822,-11471,-5135,-9321,680,-599,-466
3016981811,-11916,-4291,-9441,588,-460,-449
3017001800,-11780,-4582,-8995,578,-323,-474
3017021789,-11498,-5000,-8097,568,-266,-511
3017041778,-11356,-5380,-7317,581,-333,-538
3017061767,-11317,-6064,-7054,630,-428,-540
3017081756,-11127,-6767,-6799,674,-531,-533
3017101745,-11152,-7377,-6921,734,-637,-532
3017121734,-11571,-8234,-7674,797,-578,-527
3017141723,-11846,-9433,-8065,821,-376,-538
3017161712,-11385,-10488,-7795,803,-190,-559
3017181701,-10923,-11177,-7403,741,-111,-547
3017201690,-11621,-12084,-8089,667,-50,-498
3017221679,-11717,-12603,-8673,559,101,-427
3017241668,-11719,-12449,-9144,442,239,-362
3017261657,-11806,-11983,-9336,330,334,-313
3017281646,-11540,-11191,-9202,231,332,-280
3017301635,-11139,-10468,-8841,155,210,-264
3017321624,-11074,-10160,-8145,100,30,-249
3017341613,-11373,-9932,-7537,62,-123,-239
3017361602,-11683,-9742,-7009,36,-238,-244
3017381591,-11755,-9645,-6674,27,-327,-245
3017401580,-11765,-9587,-6688,43,-380,-233
3017421569,-11582,-9702,-6463,73,-409,-214
3017441558,-11738,-10051,-6120,115,-368,-199
3017461547,-11591,-10338,-5951,167,-306,-192
3017481536,-11412,-10516,-5994,225,-258,-176
3017501525,-11235,-10681,-6049,267,-210,-140
3017521514,-10559,-10929,-5808,296,-178,-104
3017541503,-10047,-11161,-5573,326,-202,-60
3017561492,-10021,-11183,-5598,346,-306,-48
3017581481,-10249,-11116,-5633,349,-370,-59
3017601470,-10065,-10851,-5510,344,-354,-79
3017621459,-9925,-10703,-5191,356,-365,-109
3017641448,-9789,-10650,-5004,382,-433,-155
3017661437,-9739,-10637,-4728,404,-511,-219
3017681427,-9972,-10401,-4353,427,-581,-306
3017701416,-10161,-10460,-4170,478,-753,-444
3017721405,-9909,-10097,-4152,545,-1049,-603
3017741394,-9810,-9471,-3684,630,-1396,-728
3017761383,-9227,-9042,-2154,744,-1642,-805
3017781372,-8550,-8834,277,903,-1928,-852
3017801361,-7185,-9066,2335,998,-1988,-905
3017821350,-6685,-8921,1745,1052,-2090,-1026
3017841339,-7195,-9142,596,1098,-2250,-1182
3017861328,-7522,-9516,955,1108,-2341,-1374
3017881317,-7236,-9645,1618,1094,-2283,-1523
3017901306,-7640,-10852,1767,975,-2056,-1628
3017921295,-7906,-11195,1666,781,-1608,-1724
3017941284,-7895,-11937,1884,642,-1254,-1742
3017961273,-6853,-12776,2351,548,-1130,-1776
3017981262,-5877,-14173,4230,440,-1038,-1746
3018001251,-6661,-15064,4087,292,-921,-1582
3018021240,-7382,-15431,1934,205,-757,-1406
3018041229,-6696,-15757,1199,124,-607,-1321
3018061218,-5957,-16402,1439,34,-446,-1203
3018081207,-5282,-17944,2589,-25,-246,-1026
3018101196,-5398,-18682,1984,-70,-38,-817
3018121185,-5778,-18759,522,-143,219,-720
3018141174,-4907,-18473,1258,-209,299,-722
3018161163,-3694,-18808,2604,-246,179,-688
3018181152,-3514,-19079,3564,-274,27,-563
3018201141,-3355,-18568,3364,-287,-13,-389
3018221130,-2606,-18212,3136,-294,-10,-271
3018241119,-1899,-18077,3185,-316,-8,-240
3018261108,-765,-18239,3412,-343,-8,-241
3018281097,211,-18403,3942,-363,38,-188
3018301086,-324,-18247,4125,-385,144,-97
3018321075,-1529,-17728,4728,-390,319,-53
3018341064,-3021,-17624,4807,-357,493,4
3018361053,-4402,-17467,3905,-331,762,69
3018381042,-3994,-17607,3323,-205,895,-40
3018401031,-3381,-17520,3120,-97,1063,-146
3018421020,-2083,-17960,3000,-44,1205,-87
3018441009,-3276,-18346,2233,-42,1128,46
3018460998,-4793,-19318,2265,-90,949,89
3018480987,-3724,-18200,3602,-44,491,-92
3018500976,-3153,-17954,3199,2,230,-220
3018520965,-4110,-17673,1549,-63,416,-186
3018540954,-1519,-16711,1485,-77,666,-182
3018560943,898,-16087,905,-30,818,-108
3018580932,-2069,-14631,-37,-134,130,-37
3018600921,-4038,-14353,140,-102,-209,-43
3018620910,-4073,-15893,-577,-17,-68,-23
3018640899,-2150,-18479,-126,78,53,-47
3018660888,-1044,-19400,3641,87,49,-142
3018680877,-2011,-19494,3979,59,-26,-151
3018700866,-1862,-19267,2668,-43,-111,-107
3018720855,-2049,-19529,2459,-156,-330,-51
3018740844,-2613,-19643,2622,-260,-527,35
3018760833,-3329,-18932,2248,-320,-563,122
3018780822,-3847,-18527,2929,-339,-475,152
3018800811,-3862,-18708,1632,-328,-442,153
3018820800,-3735,-18746,-215,-332,-418,152
3018840789,-3347,-18954,-669,-336,-457,127
3018860778,-3637,-19413,-279,-335,-491,111
3018880767,-3928,-19270,1486,-324,-235,137
3018900756,-4357,-18675,370,-316,87,157
3018920745,-4077,-18701,-514,-332,122,124
3018940734,-3542,-18759,-958,-362,-11,70
3018960723,-4713,-18644,2996,-395,30,63
3018980712,-3805,-17855,1645,-377,537,113
3019000701,-2567,-17634,-2006,-384,688,154
3019020690,-1938,-18357,-952,-413,273,170
3019040679,-5164,-18181,570,-449,-59,206
3019060668,-4006,-18124,2434,-431,476,304
3019080657,-2108,-17354,27,-406,900,443
3019100646,-2671,-16683,-2143,-417,663,548
3019120635,-3790,-16506,-1812,-396,400,609
3019140625,-3489,-15969,-489,-343,252,641
3019160614,-3673,-15630,539,-379,105,703
3019180603,-3566,-14708,18,-489,201,814
3019200592,-2865,-13062,-920,-608,367,923
3019220581,-4149,-10142,-2052,-708,266,979
3019240570,-4829,-7252,-6110,-612,40,943
3019260559,-4046,-8358,-2494,-435,-93,840
3019280548,-4344,-9667,2446,-547,34,848
3019300537,-5139,-9147,-707,-854,169,889
3019320526,-5738,-9925,-1807,-1078,206,844
3019340515,-5455,-10813,-2331,-1172,285,771
3019360504,-4925,-10989,-1828,-1194,317,689
3019380493,-5309,-10678,-1075,-1194,311,606
3019400482,-5940,-10853,-2460,-1146,219,511
3019420471,-6486,-11664,-4239,-1091,194,415
3019440460,-5942,-11903,-3704,-1001,278,342
3019460449,-5748,-12499,-4113,-749,384,334
3019480438,-6406,-13123,-3223,-555,432,288
3019500427,-6906,-13336,-3030,-564,331,177
3019520416,-7357,-13609,-3303,-656,225,25
3019540405,-6839,-13621,-2720,-730,167,-84
3019560394,-5664,-13260,-3350,-691,217,-112
3019580383,-5601,-13067,-5709,-606,183,-90
3019600372,-5829,-13433,-4904,-546,133,-59
3019620361,-6615,-13068,-6081,-518,7,-49
3019640350,-6697,-13256,-5515,-511,-141,-72
3019660339,-6998,-12756,-6019,-498,-254,-114
3019680328,-7205,-12092,-6498,-421,-373,-144
3019700317,-7260,-11591,-7228,-257,-438,-157
3019720306,-7578,-11289,-6965,-71,-485,-176
3019740295,-8286,-11759,-7265,56,-574,-228
3019760284,-7816,-12230,-6575,106,-557,-247
3019780273,-7887,-12549,-6815,118,-524,-238
3019800262,-7827,-12703,-7339,161,-516,-237
3019820251,-7660,-12974,-6867,235,-568,-243
3019840240,-8201,-13404,-7723,305,-595,-240
3019860229,-8090,-14065,-8640,381,-490,-242
3019880218,-7392,-14643,-7673,397,-373,-195
3019900207,-8083,-15213,-8602,381,-297,-136
3019920196,-7515,-15406,-9153,420,-147,-139
3019940185,-7071,-15697,-7982,454,-96,-162
3019960174,-7255,-16266,-8640,370,-90,-153
3019980163,-6785,-16230,-7453,213,39,-90
3020000152,-6826,-16059,-7310,-14,89,11
3020020141,-7202,-15632,-8444,-210,154,88
3020040130,-7390,-14944,-8270,-347,309,138
3020060119,-7393,-14075,-8508,-480,420,170
3020080108,-7032,-13195,-8080,-601,476,220
3020100097,-7405,-12631,-8045,-681,459,266
3020120086,-7596,-12554,-8638,-690,471,273
3020140075,-6989,-12639,-7572,-656,514,263
3020160064,-6994,-12529,-6927,-654,445,248
3020180053,-6994,-12712,-6947,-646,362,231
3020200042,-6789,-12685,-5970,-653,273,195
3020220031,-6678,-12324,-5829,-648,166,149
3020240020,-6632,-11891,-7538,-552,111,127
3020260009,-6423,-12030,-7166,-378,176,132
3020279998,-6603,-12030,-6148,-250,167,126
3020299987,-6929,-12237,-6201,-209,4,81
3020319976,-7533,-12322,-6195,-210,-71,19
3020339965,-7247,-12489,-6015,-215,-59,-53
3020359954,-6927,-12578,-4518,-228,-16,-81
3020379943,-7599,-12762,-5339,-230,34,-116
3020399932,-8028,-12793,-7304,-169,63,-197
3020419921,-7162,-12847,-7952,-66,124,-241
3020439910,-7840,-12839,-7673,48,212,-219
3020459899,-7444,-12943,-7344,122,213,-226
3020479888,-7584,-12673,-8021,180,174,-241
3020499877,-7364,-12598,-8437,243,170,-242
3020519866,-6862,-12509,-8352,308,229,-201
3020539855,-6780,-12129,-8057,335,258,-122
3020559844,-6687,-11535,-8037,352,177,-53
3020579833,-6900,-11096,-8786,409,129,14
3020599822,-7038,-10861,-9218,478,201,74
3020619812,-6798,-10708,-8973,492,303,113
3020639801,-6599,-10688,-8236,455,289,131
3020659790,-6667,-11080,-8303,406,249,120
3020679779,-6620,-11430,-8736,380,310,85
3020699768,-6143,-11660,-8067,368,435,58
3020719757,-5683,-11706,-7128,326,413,52
3020739746,-5936,-12192,-7852,268,287,46
3020759735,-5878,-12680,-8452,242,231,18
3020779724,-5787,-12898,-8790,227,224,-25
3020799713,-5497,-12710,-7699,223,184,-68
3020819702,-5370,-12569,-6560,246,2,-107
3020839691,-5339,-12736,-7457,291,-169,-121
3020859680,-5678,-12858,-7839,380,-205,-125
3020879669,-5710,-13241,-6831,473,-166,-143
3020899658,-5409,-13601,-5567,543,-186,-172
3020919647,-5069,-13707,-4771,587,-329,-218
3020939636,-5551,-13658,-5781,649,-454,-250
3020959625,-5441,-13834,-5522,745,-431,-274
3020979614,-5138,-14115,-4193,805,-478,-276
3020999603,-5312,-14410,-4057,821,-567,-256
3021019592,-5516,-14828,-4293,802,-651,-244
3021039581,-5583,-14958,-4605,767,-683,-246
3021059570,-5818,-15139,-4147,747,-624,-254
3021079559,-5948,-15388,-4104,722,-580,-270
3021099548,-6097,-15510,-4356,693,-567,-303
3021119537,-5853,-15581,-4315,674,-515,-327
3021139526,-5926,-15430,-4301,664,-443,-326
3021159515,-6123,-15467,-3952,656,-405,-331
3021179504,-6203,-15535,-3912,625,-375,-342
3021199493,-6088,-15578,-3930,577,-329,-332
3021219482,-6072,-15525,-3831,512,-299,-303
3021239471,-6230,-15405,-3838,435,-272,-267
3021259460,-6372,-15330,-3480,365,-221,-223
3021279449,-6522,-15384,-3748,297,-186,-191
3021299438,-6591,-15686,-3180,224,-171,-168
3021319427,-6438,-15631,-3018,140,-158,-134
3021339416,-6275,-15363,-2933,62,-153,-84
3021359405,-6401,-14985,-3027,6,-188,-31
3021379394,-6637,-14757,-3227,-21,-214,13
3021399383,-6844,-14533,-3472,-33,-197,58
3021419372,-6861,-14347,-3303,-32,-167,99
3021439361,-6895,-14420,-3557,-33,-163,138
3021459350,-7009,-14472,-3131,-40,-129,160
3021479339,-6810,-14394,-2550,-66,-104,159
3021499328,-6616,-14415,-2481,-131,-113,165
3021519317,-6744,-14690,-2754,-165,-78,186
3021539306,-6797,-15007,-2813,-147,-16,194
3021559295,-6714,-15299,-2756,-110,27,185
3021579284,-6521,-15539,-2537,-102,37,164
3021599273,-6342,-15647,-2400,-118,53,144
3021619262,-5874,-15839,-2103,-138,68,131
3021639251,-5929,-16226,-2104,-158,59,133
3021659240,-5737,-16054,-2333,-163,90,125
3021679229,-5097,-15620,-2484,-134,102,132
3021699218,-5100,-15463,-2503,-98,59,159
3021719207,-5318,-15438,-2291,-96,2,166
3021739196,-5006,-15159,-1768,-164,-9,173
3021759185,-5034,-14824,-1869,-246,11,191
3021779174,-5169,-14529,-1814,-290,22,189
3021799163,-5451,-14190,-2314,-278,-6,159
3021819152,-5685,-13784,-3597,-162,-13,103
3021839141,-5972,-13830,-3653,14,37,33
3021859130,-5950,-13951,-2061,28,74,-29
3021879119,-6019,-13728,-2592,-34,76,-78
3021899108,-5642,-13908,-2404,-9,114,-120
3021919097,-5726,-14264,-2233,8,117,-138
3021939086,-5870,-14532,-1986,-4,161,-139
3021959075,-5832,-14527,-2079,-17,178,-144
3021979064,-5942,-14447,-2986,-18,129,-165
3021999053,-5761,-14430,-2852,9,112,-166
3022019042,-6125,-14557,-2643,41,100,-148
3022039031,-6358,-14649,-2854,81,75,-151
3022059020,-6216,-14824,-2838,124,60,-157
3022079010,-6276,-15013,-3025,154,67,-136
3022098999,-6344,-15188,-2886,191,101,-115
3022118988,-6185,-15176,-2889,209,100,-111
3022138977,-6264,-15364,-2768,207,84,-103
3022158966,-6112,-15541,-3021,184,69,-96
3022178955,-5995,-15636,-3262,152,66,-88
3022198944,-5988,-15643,-2957,118,60,-77
3022218933,-5808,-15589,-2808,90,55,-68
3022238922,-5723,-15477,-2681,59,57,-54
3022258911,-5953,-15446,-3057,33,71,-45
3022278900,-6330,-15213,-3675,22,154,-31
3022298889,-6157,-15251,-3187,-6,279,-8
3022318878,-6104,-15396,-3558,-93,281,16
3022338867,-6430,-15396,-3855,-178,230,47
3022358856,-6574,-15473,-3512,-239,216,74
3022378845,-6644,-15432,-3698,-275,213,95
3022398834,-6612,-15286,-4524,-284,201,103
3022418823,-6554,-15023,-5151,-276,218,130
3022438812,-6656,-14872,-5558,-289,262,177
3022458801,-6690,-14822,-5493,-356,294,217
3022478790,-6818,-14886,-5797,-477,317,253
3022498779,-6995,-15198,-6572,-627,341,301
3022518768,-7095,-15429,-6848,-769,398,392
3022538757,-7571,-15319,-6407,-920,409,502
3022558746,-8086,-15015,-7004,-1086,347,578
3022578735,-8424,-14663,-8304,-1195,388,651
3022598724,-8983,-14585,-8603,-1275,438,720
3022618713,-9412,-14535,-9537,-1379,440,765
3022638702,-9308,-14351,-9992,-1494,465,799
3022658691,-9141,-13979,-9843,-1634,473,845
3022678680,-9190,-13817,-10187,-1757,522,900
3022698669,-9093,-13925,-10558,-1881,584,950
3022718658,-9170,-13981,-11795,-2020,559,993
3022738647,-9384,-13837,-12565,-2127,554,1027
3022758636,-9046,-13192,-12553,-2209,648,1056
3022778625,-8644,-12424,-12834,-2311,662,1057
3022798614,-8546,-11864,-13091,-2420,606,1052
3022818603,-8385,-11004,-13492,-2504,577,1055
3022838592,-7989,-10028,-13348,-2549,635,1079
3022858581,-7552,-9040,-13051,-2603,641,1073
3022878570,-7884,-8152,-14164,-2661,539,1034
3022898559,-7751,-7941,-14535,-2658,518,999
3022918548,-7232,-6770,-13905,-2672,508,1003
3022938537,-7070,-5912,-14054,-2683,510,1023
3022958526,-6852,-5388,-13706,-2724,408,1013
3022978515,-7061,-4180,-13829,-2773,285,1012
3022998504,-6815,-2799,-12958,-2763,244,1005
3023018493,-6914,-1570,-13412,-2715,252,990
3023038482,-7010,-1118,-13767,-2642,264,943
3023058471,-7121,-454,-14054,-2561,256,885
3023078460,-6499,439,-13335,-2488,328,845
3023098449,-5599,1447,-11951,-2479,353,841
3023118438,-5172,3154,-11140,-2516,302,855
3023138427,-5541,4301,-11738,-2482,355,869
3023158416,-5308,5207,-10758,-2388,427,846
3023178405,-5475,6123,-10457,-2238,427,801
3023198394,-4963,6706,-9093,-2029,435,745
3023218383,-4430,7474,-7188,-1831,424,680
3023238372,-3872,7885,-6161,-1644,363,608
3023258361,-3110,8595,-5659,-1458,262,548
3023278350,-3646,9023,-5823,-1246,162,477
3023298339,-3717,9496,-5302,-972,97,369
3023318328,-3434,10002,-4951,-657,60,251
3023338317,-3045,10242,-4224,-341,-22,125
3023358306,-2927,10358,-2990,-66,-126,-6
3023378295,-2754,10573,-3575,200,-219,-134
3023398284,-2807,10520,-5121,482,-291,-238
3023418273,-3489,10261,-5274,767,-417,-364
3023438262,-3816,10083,-4924,1055,-483,-512
3023458251,-3577,9446,-4973,1317,-482,-648
3023478240,-3689,8771,-7289,1533,-497,-735
3023498229,-4558,7940,-8240,1748,-460,-783
3023518218,-5285,7190,-8609,1927,-449,-852
3023538208,-5401,6267,-8849,2072,-414,-933
3023558197,-5476,5088,-9884,2178,-334,-967
3023578186,-6388,4002,-10431,2225,-326,-978
3023598175,-7571,2912,-11476,2302,-287,-1016
3023618164,-7059,1748,-11793,2401,-219,-1072
3023638153,-7341,669,-12946,2399,-296,-1097
3023658142,-8566,-273,-13733,2384,-348,-1102
3023678131,-8173,-1269,-13268,2400,-210,-1083
3023698120,-7655,-1825,-12552,2346,-260,-1044
3023718109,-7690,-1992,-14539,2248,-427,-996
3023738098,-9207,-2959,-14680,2194,-544,-990
3023758087,-9964,-3776,-15049,2235,-546,-1020
3023778076,-8579,-3997,-13220,2254,-630,-1052
3023798065,-8576,-3788,-12619,2202,-726,-1028
3023818054,-10113,-4890,-12961,2202,-705,-1051
3023838043,-10113,-4890,-12961,2217,-715,-1134
3023858032,-9745,-6917,-13472,2188,-829,-1159
3023878021,-9519,-8102,-11491,2188,-829,-1159
3023898010,-9301,-7865,-11265,2125,-874,-1117
3023917999,-9984,-8621,-11806,2098,-819,-1103
3023937988,-10440,-10409,-11660,2067,-790,-1145
3023957977,-10134,-11324,-11936,2025,-724,-1133
3023977966,-9879,-11270,-11096,1962,-691,-1075
3023997955,-9572,-11242,-10752,1867,-668,-1027
3024017944,-10235,-12081,-10602,1763,-645,-991
3024037933,-10422,-12763,-11037,1681,-516,-935
3024057922,-9572,-12686,-10416,1591,-405,-859
3024077911,-10190,-12577,-10075,1474,-445,-806
3024097900,-10736,-12894,-10174,1429,-355,-790
3024117889,-10060,-13284,-9134,1407,-154,-752
3024137878,-9803,-13195,-8857,1339,-85,-695
3024157867,-9752,-13267,-8086,1260,-91,-664
3024177856,-9708,-13536,-8088,1177,-110,-635
3024197845,-9442,-13782,-7677,1102,-63,-583
3024217834,-9420,-13757,-7605,993,5,-503
3024237823,-9252,-13779,-7426,853,12,-438
3024257812,-9125,-13848,-7127,714,-16,-379
3024277801,-9173,-13935,-6808,591,-31,-318
3024297790,-9077,-14003,-6648,493,-51,-260
3024317779,-9089,-13948,-6812,448,-35,-208
3024337768,-8892,-13894,-6619,419,22,-165
3024357757,-8652,-13853,-6086,343,35,-133
3024377746,-8466,-13766,-5942,230,0,-101
3024397735,-8313,-13896,-5813,126,10,-53
3024417724,-8317,-14200,-5419,20,40,-4
3024437713,-8477,-14408,-5731,-114,60,41
3024457702,-8536,-14481,-6462,-246,87,84
3024477691,-8867,-14658,-7177,-366,148,152
3024497680,-9270,-14792,-7865,-487,254,227
3024517669,-9103,-14723,-7685,-647,349,305
3024537658,-9387,-14378,-8173,-849,344,381
3024557647,-9827,-14212,-9095,-1033,341,450
3024577636,-9971,-14133,-9803,-1183,409,542
3024597625,-10122,-13892,-10029,-1308,523,657
3024617614,-10532,-13609,-10514,-1449,571,747
3024637603,-10293,-13575,-10698,-1600,578,824
3024657592,-10327,-13248,-11146,-1751,634,931
3024677581,-10589,-12973,-11533,-1904,691,1016
3024697570,-10770,-12820,-11827,-2051,704,1066
3024717559,-10693,-12666,-12159,-2178,725,1110
3024737548,-10685,-12299,-12203,-2286,741,1153
3024757537,-10511,-11588,-12576,-2381,765,1187
3024777526,-10258,-10916,-12901,-2446,778,1213
3024797515,-10224,-10447,-13161,-2496,778,1218
3024817504,-9762,-9519,-13288,-2551,772,1212
3024837493,-9432,-8779,-13466,-2601,737,1208
3024857482,-9533,-8017,-14000,-2631,694,1204
3024877471,-9218,-7461,-13442,-2620,705,1195
3024897460,-8522,-6568,-12671,-2611,666,1178
3024917449,-7860,-5107,-12124,-2606,587,1169
3024937438,-7806,-3940,-12832,-2573,566,1157
3024957427,-7693,-3442,-13207,-2540,526,1106
3024977416,-7691,-2880,-13439,-2501,483,1050
3024997406,-6722,-1852,-12370,-2459,495,1024
3025017395,-6856,-853,-12901,-2421,538,1035
3025037384,-6762,-348,-13154,-2377,598,1011
3025057373,-6305,658,-12602,-2365,587,968
3025077362,-5418,2469,-11555,-2347,614,952
3025097351,-5093,3931,-10720,-2310,614,935
3025117340,-5052,5182,-10587,-2225,608,898
3025137329,-4798,6198,-10303,-2069,616,829
3025157318,-3948,7088,-8769,-1893,606,737
3025177307,-3201,7896,-7572,-1721,540,647
3025197296,-3371,8140,-6706,-1546,464,557
3025217285,-3004,8409,-6965,-1342,399,434
3025237274,-2872,8795,-6968,-1139,281,328
3025257263,-3107,9317,-6208,-930,124,227
3025277252,-2962,9962,-6329,-687,38,131
3025297241,-2667,10154,-6151,-432,-16,54
3025317230,-2576,10376,-6141,-215,-104,-15
3025337219,-2729,10629,-5366,-14,-170,-66
3025357208,-2839,10876,-5161,188,-226,-129
3025377197,-3016,10703,-5617,416,-306,-201
3025397186,-3478,10403,-6409,659,-434,-289
3025417175,-3813,9979,-5773,915,-498,-390
3025437164,-3961,9416,-5214,1152,-515,-492
3025457153,-3829,8779,-5800,1371,-509,-579
3025477142,-3982,7953,-7160,1562,-565,-667
3025497131,-5073,6952,-8593,1738,-622,-764
3025517120,-4665,6129,-8070,1907,-669,-883
3025537109,-4929,5222,-8472,2013,-816,-975
3025557098,-5727,4171,-9754,2109,-911,-1056
3025577087,-6567,2697,-11216,2235,-843,-1112
3025597076,-7012,1288,-11213,2313,-854,-1153
3025617065,-7380,315,-11490,2318,-894,-1171
3025637054,-7666,-529,-12359,2268,-909,-1159
3025657043,-8978,-1526,-12857,2221,-911,-1133
3025677032,-10130,-2013,-14703,2194,-950,-1147
3025697021,-10500,-2239,-15089,2217,-914,-1191
3025717010,-10067,-2698,-12746,2225,-786,-1245
3025736999,-10355,-3331,-11901,2147,-774,-1295
3025756988,-10743,-4293,-12576,2085,-870,-1375
3025776977,-11841,-5406,-14862,2101,-847,-1445
3025796966,-11347,-6488,-12019,2162,-593,-1474
3025816955,-10499,-6665,-8616,2147,-502,-1454
3025836944,-10697,-7406,-11662,2137,-538,-1472
3025856933,-10350,-9613,-13128,2129,-573,-1514
3025876922,-11696,-10747,-12337,2117,-509,-1478
3025896911,-10221,-10245,-8384,2108,-463,-1427
3025916900,-10410,-10531,-10361,2069,-500,-1390
3025936889,-10180,-12734,-10949,2033,-449,-1376
3025956878,-11003,-13670,-10439,1972,-438,-1263
3025976867,-10768,-12690,-8707,1954,-333,-1140
3025996856,-9971,-12328,-7949,1895,-304,-1107
3026016845,-10269,-13004,-8800,1809,-444,-1144
3026036834,-10977,-13908,-9427,1807,-451,-1155
3026056823,-10876,-14502,-8135,1855,-289,-1110
3026076812,-9500,-14311,-5717,1832,-193,-1045
3026096801,-8934,-14402,-5662,1702,-351,-1009
3026116790,-9787,-15089,-7061,1609,-461,-996
3026136779,-9566,-15588,-6551,1565,-290,-915
3026156768,-9594,-15391,-6094,1462,-128,-801
3026176757,-9049,-15315,-5240,1298,-150,-759
3026196746,-8638,-15715,-4953,1137,-215,-717
3026216735,-8458,-15966,-4695,1036,-209,-635
3026236724,-8770,-15908,-4403,977,-150,-551
3026256713,-8526,-15664,-3782,896,-73,-504
3026276702,-7950,-15436,-4296,811,-53,-479
3026296691,-7290,-15407,-3746,699,-80,-435
3026316680,-7387,-15133,-3063,569,-124,-356
3026336669,-7568,-14788,-2439,477,-83,-281
3026356658,-7464,-14966,-2572,366,-53,-234
3026376647,-7191,-15218,-3068,224,-43,-171
3026396636,-7608,-15115,-2989,109,-75,-105
3026416625,-7811,-14872,-2851,41,-63,-64
3026436614,-7501,-15015,-2358,-28,-50,-47
3026456604,-6969,-15178,-2503,-123,-62,5
3026476593,-7390,-15269,-2846,-215,-54,99
3026496582,-7920,-15313,-3246,-302,-3,173
3026516571,-8016,-15385,-3407,-428,69,217
3026536560,-7888,-15360,-3357,-592,125,275
3026556549,-8087,-15505,-3756,-756,189,368
3026576538,-8494,-15567,-3985,-864,297,458
3026596527,-8635,-15539,-4413,-953,356,497
3026616516,-8289,-15377,-4693,-1051,372,502
3026636505,-8208,-15052,-5365,-1139,370,527
3026656494,-8326,-14898,-5268,-1208,428,586
3026676483,-8341,-14845,-6050,-1303,469,639
3026696472,-8539,-15032,-6483,-1405,477,677
3026716461,-8509,-14961,-6545,-1502,512,720
3026736450,-8560,-14744,-6758,-1585,559,772
3026756439,-8711,-14722,-7154,-1670,559,818
3026776428,-9036,-14498,-7712,-1753,548,862
3026796417,-9374,-14129,-8456,-1806,553,891
3026816406,-9324,-13740,-9227,-1855,574,906
3026836395,-9422,-13275,-9919,-1898,645,929
3026856384,-9541,-12981,-10525,-1936,710,937
3026876373,-9478,-12796,-10844,-1991,749,939
3026896362,-9489,-12662,-10865,-2037,789,965
3026916351,-9296,-12169,-11024,-2079,835,1000
3026936340,-9419,-11424,-11565,-2122,898,1038
3026956329,-9317,-10576,-11856,-2171,927,1052
3026976318,-9180,-9526,-12612,-2220,892,1033
3026996307,-9015,-8755,-12476,-2231,881,1010
3027016296,-8690,-7932,-12350,-2222,845,978
3027036285,-8229,-7104,-12104,-2204,767,935
3027056274,-7904,-6190,-12356,-2183,691,910
3027076263,-7653,-5447,-13055,-2157,614,900
3027096252,-7269,-5052,-13288,-2133,553,908
3027116241,-7427,-4318,-13341,-2161,398,909
3027136230,-7440,-3690,-13337,-2190,268,889
3027156219,-7304,-2644,-13315,-2179,202,881
3027176208,-7336,-1789,-13562,-2109,207,884
3027196197,-6711,-680,-12770,-2042,218,856
3027216186,-6493,855,-12305,-2006,134,811
3027236175,-6135,1760,-12309,-1931,124,769
3027256164,-6251,2213,-12620,-1836,136,708
3027276153,-6293,2731,-12494,-1730,156,641
3027296142,-6457,2747,-12895,-1614,221,594
3027316131,-5764,3202,-11921,-1558,251,565
3027336120,-6109,3903,-12385,-1545,265,570
3027356109,-6096,4455,-11856,-1521,343,565
3027376098,-6052,5529,-12112,-1515,402,568
3027396087,-5723,6505,-11717,-1480,459,562
3027416076,-5394,7423,-11289,-1431,518,543
3027436065,-5044,8254,-11529,-1383,523,503
3027456054,-5004,8666,-11588,-1327,505,457
3027476043,-4613,9010,-11074,-1273,484,409
3027496032,-4407,9271,-10485,-1253,415,365
3027516021,-4222,9566,-9906,-1239,382,334
3027536010,-4106,9916,-9439,-1204,344,317
3027555999,-4095,10328,-8638,-1138,273,297
3027575988,-3997,10710,-7976,-1038,187,256
3027595977,-4070,10913,-7581,-888,126,197
3027615966,-3362,11141,-6988,-711,93,132
3027635955,-3351,11249,-6413,-544,-27,67
3027655944,-3442,11021,-6077,-360,-138,3
3027675933,-3415,10855,-6085,-154,-198,-57
3027695922,-3657,10486,-5924,61,-255,-122
3027715911,-3737,10395,-6592,263,-333,-202
3027735900,-3609,10281,-7252,454,-350,-254
3027755889,-3628,10220,-7083,603,-361,-281
3027775878,-3854,10231,-6414,729,-407,-327
3027795867,-3688,10213,-7186,868,-441,-391
3027815856,-4162,9840,-8842,1023,-477,-432
3027835845,-4972,9491,-8549,1188,-503,-484
3027855834,-5146,9088,-7880,1326,-499,-547
3027875823,-4881,8475,-8320,1421,-495,-604
3027895812,-5427,7855,-10366,1501,-526,-649
3027915802,-6418,6924,-10691,1594,-551,-712
3027935791,-6648,6485,-9425,1667,-531,-792
3027955780,-5897,5922,-9691,1708,-497,-854
3027975769,-6003,4921,-11165,1716,-600,-893
3027995758,-8005,3789,-13270,1780,-668,-942
3028015747,-7338,3330,-10910,1878,-658,-1018
3028035736,-7392,3109,-11264,1878,-723,-1052
3028055725,-6741,1893,-11450,1878,-757,-1057
3028075714,-8830,530,-12131,1857,-916,-1052
3028095703,-9836,-92,-12983,1901,-907,-1106
3028115692,-9242,-756,-12655,1962,-822,-1140
3028135681,-10369,-1890,-13017,1939,-819,-1160
3028155670,-10264,-2439,-12372,1871,-835,-1203
3028175659,-11428,-3025,-12955,1847,-844,-1233
3028195648,-10922,-3696,-12482,1848,-755,-1263
3028215637,-11242,-4537,-12182,1796,-647,-1246
3028235626,-11753,-5142,-12517,1709,-690,-1248
3028255615,-12033,-5535,-12028,1689,-659,-1266
3028275604,-12278,-6051,-12583,1696,-502,-1271
3028295593,-11656,-6971,-12179,1668,-406,-1266
3028315582,-11941,-7403,-11572,1625,-414,-1219
3028335571,-12648,-7959,-10980,1599,-324,-1170
3028355560,-11450,-8047,-10867,1567,-208,-1136
3028375549,-11570,-8918,-11706,1548,-222,-1101
3028395538,-11622,-9571,-10712,1500,-352,-1097
3028415527,-11543,-9211,-9427,1472,-325,-1051
3028435516,-11177,-9472,-8476,1456,-188,-984
3028455505,-11050,-10670,-9854,1386,-209,-971
3028475494,-10744,-11246,-9831,1327,-364,-968
3028495483,-11185,-11209,-9062,1352,-387,-928
3028515472,-10381,-11148,-7174,1362,-302,-896
3028535461,-10174,-11623,-6580,1300,-310,-892
3028555450,-9945,-12294,-7407,1257,-387,-925
3028575439,-9787,-12812,-8064,1280,-415,-947
3028595428,-9514,-12913,-7102,1320,-364,-938
3028615417,-8788,-12895,-5091,1328,-318,-929
3028635406,-8811,-13417,-5416,1248,-400,-936
3028655395,-8694,-14177,-6086,1189,-399,-931
3028675384,-8302,-14510,-5505,1173,-263,-842
3028695373,-8599,-14522,-5126,1143,-162,-734
3028715362,-8508,-14705,-4685,1072,-174,-716
3028735351,-8313,-15050,-4687,974,-252,-730
3028755340,-8559,-15211,-5047,935,-173,-688
3028775329,-8231,-15252,-4576,946,21,-615
3028795318,-8183,-15337,-3913,891,67,-560
3028815307,-8010,-15466,-3741,790,32,-542
3028835296,-7572,-15529,-3934,686,38,-497
3028855285,-7718,-15581,-3780,584,63,-414
3028875274,-7905,-15258,-3131,502,69,-356
3028895263,-7570,-15043,-2920,428,41,-326
3028915252,-7280,-15076,-3167,354,4,-279
3028935241,-7794,-14969,-3304,291,-1,-212
3028955230,-8154,-14782,-2838,236,64,-160
3028975219,-7865,-14892,-2226,146,132,-127
3028995208,-7400,-15112,-2475,24,61,-107
3029015197,-7410,-15209,-3044,-100,-7,-50
3029035186,-7782,-15259,-3141,-186,114,55
3029055175,-8002,-15405,-3244,-273,189,134
3029075164,-8140,-15400,-3931,-414,148,164
3029095153,-8044,-15301,-4206,-533,217,227
3029115142,-8281,-15147,-4430,-623,379,332
3029135131,-8503,-15179,-4578,-732,487,410
3029155120,-8668,-15074,-5207,-867,466,438
3029175109,-8728,-14917,-5452,-982,453,460
3029195098,-8521,-14778,-5979,-1078,566,530
3029215087,-8383,-14779,-6169,-1178,667,618
3029235076,-8627,-14828,-6393,-1288,653,677
3029255065,-8787,-14794,-7091,-1382,644,716
3029275054,-8712,-14762,-7457,-1458,648,760
3029295043,-8787,-14574,-7876,-1535,682,826
3029315032,-9023,-14175,-8150,-1617,756,906
3029335021,-9256,-14051,-8626,-1719,745,939
3029355010,-9419,-13925,-9491,-1811,699,944
3029375000,-9466,-13609,-9795,-1869,683,959
3029394989,-9508,-13111,-10150,-1905,715,997
3029414978,-9330,-12693,-10231,-1932,798,1034
3029434967,-9131,-12100,-10754,-1998,777,1050
3029454956,-9457,-11525,-11815,-2058,751,1055
3029474945,-9281,-11135,-12074,-2101,760,1042
3029494934,-9185,-10483,-12275,-2149,729,1039
3029514923,-9223,-10088,-12457,-2163,703,1042
3029534912,-8852,-9901,-12265,-2177,718,1048
3029554901,-8352,-8717,-12285,-2244,637,1052
3029574890,-8606,-7492,-12994,-2288,536,1064
3029594879,-8396,-6594,-13167,-2259,501,1061
3029614868,-8229,-5590,-13295,-2212,451,1036
3029634857,-8230,-4961,-13808,-2167,408,994
3029654846,-7854,-4480,-13835,-2159,452,968
3029674835,-7533,-3790,-13651,-2204,486,961
3029694824,-7370,-3049,-13453,-2284,425,960
3029714813,-7340,-1743,-13708,-2336,343,946
3029734802,-7406,-638,-13909,-2291,375,923
3029754791,-6969,395,-13361,-2202,448,886
3029774780,-6453,1400,-13268,-2111,509,855
3029794769,-6221,1779,-12602,-2039,549,828
3029814758,-5602,2636,-11835,-2031,485,781
3029834747,-5775,3404,-11472,-2001,427,751
3029854736,-5799,3868,-11833,-1895,430,724
3029874725,-5499,4472,-11634,-1779,422,691
3029894714,-5041,5481,-10794,-1680,393,661
3029914703,-4934,6292,-10503,-1596,334,633
3029934692,-4763,6730,-10616,-1509,302,612
3029954681,-4882,7287,-11201,-1422,276,600
3029974670,-4619,7850,-10757,-1339,299,587
3029994659,-4427,8687,-9992,-1285,285,581
3030014648,-4149,9492,-9134,-1251,252,576
3030034637,-4314,10180,-9315,-1191,268,570
3030054626,-4098,10549,-9502,-1087,304,547
3030074615,-3946,11144,-8602,-995,252,496
3030094604,-3317,11594,-7416,-906,172,435
3030114593,-3094,11722,-6347,-812,96,371
3030134582,-2953,11720,-6448,-678,31,298
3030154571,-2964,11623,-7031,-491,-43,212
3030174560,-2905,11476,-5983,-277,-159,110
3030194549,-2663,11385,-5487,-70,-280,1
3030214538,-1944,11156,-6006,128,-344,-75
3030234527,-2357,10875,-6756,308,-426,-125
3030254516,-2540,10678,-6524,483,-497,-184
3030274505,-2215,10668,-6067,628,-609,-258
3030294494,-2331,10654,-6118,773,-692,-313
3030314483,-3097,10209,-7505,963,-668,-358
3030334472,-3814,9789,-8003,1167,-614,-428
3030354461,-4103,9520,-7696,1330,-606,-528
3030374450,-4349,8885,-7665,1439,-599,-623
3030394439,-4591,8303,-9195,1517,-554,-695
3030414428,-5736,7637,-10963,1597,-500,-764
3030434417,-6100,6914,-9899,1679,-429,-857
3030454406,-5654,6551,-9209,1709,-423,-947
3030474395,-5414,5878,-11406,1722,-503,-1006
3030494384,-7460,4478,-12510,1789,-571,-1047
3030514373,-7387,3933,-11660,1882,-527,-1115
3030534362,-7060,3608,-10898,1909,-560,-1146
3030554351,-6961,2509,-12621,1910,-657,-1168
3030574340,-8666,966,-14229,1925,-739,-1185
3030594329,-9138,367,-12935,1933,-682,-1202
3030614318,-9336,141,-11479,1900,-637,-1201
3030634307,-8915,-845,-13744,1843,-634,-1210
3030654296,-10231,-2294,-14001,1789,-669,-1179
3030674285,-11139,-2433,-13609,1796,-566,-1144
3030694274,-10209,-2157,-11918,1803,-450,-1138
3030714263,-9423,-2677,-11942,1786,-416,-1147
3030734252,-10777,-3959,-14640,1763,-542,-1187
3030754241,-11327,-5288,-14368,1846,-439,-1223
3030774230,-10621,-5635,-10941,1887,-317,-1179
3030794219,-9907,-5940,-10367,1826,-278,-1106
3030814208,-10190,-6998,-12436,1744,-347,-1054
3030834197,-11779,-8394,-13123,1746,-317,-1024
3030854187,-11210,-8349,-11766,1798,-223,-1028
3030874176,-10479,-8115,-10729,1821,-168,-1010
3030894165,-9897,-8895,-9899,1781,-203,-1005
3030914154,-10196,-9804,-10501,1700,-331,-1004
3030934143,-10504,-10053,-11258,1709,-315,-981
3030954132,-10208,-10668,-11109,1763,-216,-969
3030974121,-9347,-11149,-9293,1714,-289,-952
3030994110,-9665,-11440,-8334,1592,-458,-923
3031014099,-9615,-11945,-8295,1531,-526,-908
3031034088,-10002,-12708,-8978,1539,-521,-889
3031054077,-9671,-13156,-8666,1573,-443,-867
3031074066,-9557,-13281,-7802,1564,-460,-846
3031094055,-9258,-13266,-6443,1497,-584,-860
3031114044,-9286,-13544,-6232,1422,-726,-893
3031134033,-9114,-14159,-6732,1403,-725,-902
3031154022,-8790,-14589,-6222,1400,-591,-837
3031174011,-8777,-14716,-5081,1339,-497,-745
3031194000,-9032,-14819,-5190,1209,-496,-704
3031213989,-8770,-15020,-5469,1071,-476,-670
3031233978,-9033,-15202,-5671,956,-364,-594
3031253967,-8908,-15059,-5281,888,-209,-516
3031273956,-8830,-15146,-4810,824,-134,-478
3031293945,-8481,-15210,-4606,741,-119,-469
3031313934,-8137,-15111,-4395,658,-92,-422
3031333923,-8567,-15033,-4552,616,27,-336
3031353912,-7984,-14961,-3631,572,138,-283
3031373901,-7743,-14993,-3746,466,126,-241
3031393890,-7716,-14914,-3276,369,129,-185
3031413879,-7652,-14916,-3218,267,144,-124
3031433868,-8139,-14912,-3511,167,150,-65
3031453857,-8251,-14796,-3653,73,197,-35
3031473846,-7828,-14760,-3154,-26,274,-9
3031493835,-7674,-14853,-3096,-150,268,24
3031513824,-7756,-14997,-4005,-277,250,77
3031533813,-8002,-15010,-4525,-391,268,149
3031553802,-8199,-14868,-4416,-511,279,206
3031573791,-8063,-14607,-4692,-636,302,256
3031593780,-8266,-14751,-5518,-743,369,339
3031613769,-8441,-14888,-6159,-839,464,428
3031633758,-8749,-14997,-6293,-975,502,491
3031653747,-8986,-15231,-6262,-1157,560,535
3031673736,-8896,-15202,-7000,-1354,557,568
3031693725,-9293,-15271,-7803,-1493,564,620
3031713714,-9329,-15248,-8252,-1579,681,687
3031733703,-9443,-15086,-8402,-1670,774,732
3031753692,-9052,-14803,-8917,-1791,752,742
3031773681,-9022,-14449,-9434,-1911,746,800
3031793670,-9290,-14107,-9832,-1998,822,888
3031813659,-9785,-13922,-10483,-2094,821,924
3031833648,-9871,-13654,-10831,-2200,732,918
3031853637,-9599,-12969,-10807,-2280,691,932
3031873626,-9705,-12295,-10754,-2327,728,964
3031893615,-9405,-11565,-11520,-2372,716,965
3031913604,-9523,-11039,-12538,-2402,629,953
3031933593,-9241,-10564,-13087,-2421,571,940
3031953582,-8889,-9808,-12966,-2444,613,961
3031973571,-8513,-9136,-12556,-2494,621,987
3031993560,-8501,-8560,-13262,-2566,499,1000
3032013549,-8568,-7637,-13777,-2579,399,1019
3032033538,-8447,-6579,-13689,-2527,472,1052
3032053527,-7953,-5432,-13508,-2507,488,1045
3032073516,-7916,-4271,-13824,-2513,447,1026
3032093505,-7653,-3568,-13971,-2504,471,991
3032113494,-7366,-2792,-13612,-2502,445,951
3032133483,-7103,-1831,-12785,-2494,389,929
3032153472,-6824,-641,-12327,-2452,385,915
3032173461,-6872,144,-12888,-2396,356,887
3032193450,-6359,1168,-11854,-2329,407,861
3032213439,-6107,2296,-12149,-2272,437,842
3032233428,-5846,2917,-11612,-2207,382,810
3032253417,-5945,3679,-11341,-2129,343,785
3032273406,-5413,4637,-10647,-2025,364,769
3032293395,-4907,5516,-9555,-1933,306,748
3032313385,-5384,6269,-10165,-1835,194,723
3032333374,-4978,7050,-9937,-1682,184,704
3032353363,-4622,7852,-9395,-1537,166,696
3032373352,-4477,8436,-8569,-1416,101,686
3032393341,-4113,9070,-7507,-1300,55,668
3032413330,-4078,9710,-7544,-1180,11,637
3032433319,-4222,10106,-8211,-1029,-28,595
3032453308,-4249,10512,-8154,-850,-77,536
3032473297,-4011,10980,-7185,-678,-111,462
3032493286,-3457,11174,-6188,-545,-79,411
3032513275,-2997,11376,-6529,-450,-82,359
3032533264,-3262,11584,-7060,-347,-122,294
3032553253,-3300,11888,-6686,-207,-193,203
3032573242,-3302,11982,-5431,-20,-236,105
3032593231,-2816,11752,-5061,201,-206,2
3032613220,-2588,11253,-5254,402,-296,-107
3032633209,-3052,10766,-6000,594,-450,-212
3032653198,-3159,10526,-6138,812,-554,-328
3032673187,-3222,10015,-5812,1040,-628,-432
3032693176,-3034,9430,-6681,1221,-672,-524
3032713165,-2995,8758,-7292,1363,-790,-600
3032733154,-4277,8021,-7981,1455,-976,-685
3032753143,-4707,7546,-8408,1589,-918,-794
3032773132,-4565,7120,-9278,1700,-709,-858
3032793121,-5415,6340,-10153,1761,-721,-928
3032813110,-6331,5783,-10200,1817,-806,-1025
3032833099,-7180,5215,-11387,1896,-748,-1122
3032853088,-7826,3680,-12373,1983,-599,-1222
3032873077,-8090,2628,-11608,1981,-536,-1289
3032893066,-7836,2258,-10567,1932,-517,-1323
3032913055,-9446,1381,-12390,1890,-533,-1334
3032933044,-10872,-232,-14884,1974,-399,-1399
3032953033,-9830,-819,-13384,2032,-234,-1425
3032973022,-9577,-463,-10690,1949,-245,-1374
3032993011,-9783,-1445,-11335,1908,-273,-1355
3033013000,-10584,-3051,-13536,1932,-303,-1352
3033032989,-11152,-3819,-14191,2002,-309,-1367
3033052978,-10045,-4001,-11119,2069,-288,-1343
3033072967,-10297,-4899,-10646,2007,-416,-1265
3033092956,-10152,-6310,-11778,1917,-596,-1220
3033112945,-12484,-7399,-13784,1885,-606,-1155
3033132934,-12273,-7792,-13486,1963,-446,-1166
3033152923,-11544,-7506,-11154,2005,-400,-1148
3033172912,-11521,-7948,-10994,2007,-440,-1131
3033192901,-11235,-9134,-11035,1979,-461,-1153
3033212890,-12399,-10192,-12503,1946,-396,-1153
3033232879,-10873,-10375,-10449,1914,-348,-1146
3033252868,-10291,-9901,-8567,1813,-443,-1076
3033272857,-11027,-10667,-10062,1763,-522,-1078
3033292846,-10816,-12206,-10428,1760,-494,-1127
3033312835,-10429,-12373,-9741,1763,-439,-1081
3033332824,-9614,-12053,-7851,1754,-466,-1006
3033352813,-9861,-12672,-7172,1675,-602,-986
3033372802,-9777,-13752,-7871,1589,-665,-1017
3033392791,-9233,-14048,-7675,1537,-620,-970
3033412780,-8922,-13771,-6508,1497,-562,-868
3033432769,-9065,-13756,-5914,1409,-589,-814
3033452758,-9478,-14145,-6268,1304,-654,-848
3033472747,-9693,-14589,-6851,1256,-591,-885
3033492736,-9145,-14929,-5830,1256,-480,-869
3033512725,-8798,-15063,-4018,1229,-391,-788
3033532714,-8811,-15238,-3332,1159,-345,-718
3033552703,-8530,-15490,-4250,1072,-369,-690
3033572692,-8560,-15734,-4279,1013,-334,-637
3033592681,-8113,-15485,-3404,980,-203,-558
3033612670,-8046,-15251,-2203,899,-222,-513
3033632659,-8159,-15210,-2974,777,-267,-489
3033652648,-7768,-15328,-3227,672,-172,-423
3033672637,-8125,-15225,-2642,545,-112,-348
3033692626,-8202,-14953,-2359,405,-125,-309
3033712615,-7852,-14875,-2547,275,-83,-256
3033732604,-7880,-14872,-2981,173,-45,-175
3033752593,-8466,-14912,-3084,101,-18,-104
3033772583,-8426,-14820,-2949,25,45,-61
3033792572,-7963,-14838,-3119,-79,61,-17
3033812561,-8353,-14856,-3593,-194,53,62
3033832550,-8960,-14874,-3294,-303,222,174
3033852539,-8784,-15174,-3102,-498,325,269
3033872528,-8994,-15431,-3867,-711,285,350
3033892517,-9245,-15461,-4308,-843,351,455
3033912506,-9374,-15399,-4491,-932,500,562
3033932495,-9383,-15313,-4706,-1047,593,632
3033952484,-9467,-15297,-5614,-1172,642,667
3033972473,-9132,-15397,-5977,-1286,701,706
3033992462,-9372,-15192,-6308,-1409,776,772
3034012451,-9394,-15109,-6546,-1537,913,847
3034032440,-9468,-15194,-6933,-1687,989,918
3034052429,-9688,-15280,-8118,-1825,1030,997
3034072418,-9911,-15130,-9109,-1932,1080,1071
3034092407,-10185,-14848,-9359,-2016,1184,1137
3034112396,-10153,-14572,-9755,-2107,1238,1171
3034132385,-9895,-14097,-10907,-2210,1251,1205
3034152374,-9879,-13698,-11674,-2284,1272,1268
3034172363,-10053,-13242,-10754,-2364,1258,1303
3034192352,-9724,-12359,-10624,-2489,1172,1296
3034212341,-9822,-11639,-11749,-2569,1091,1296
3034232330,-9970,-11160,-12478,-2581,1050,1303
3034252319,-9560,-10225,-12495,-2574,1012,1301
3034272308,-9424,-8839,-12696,-2615,866,1260
3034292297,-8799,-7730,-12132,-2640,799,1194
3034312286,-8981,-7144,-13881,-2663,692,1126
3034332275,-8589,-6709,-14057,-2633,664,1065
3034352264,-8446,-6043,-13895,-2601,668,1028
3034372253,-7460,-4733,-12772,-2624,619,994
3034392242,-6681,-3230,-12822,-2691,551,994
3034412231,-7060,-2169,-13629,-2718,409,992
3034432220,-7097,-1384,-13972,-2623,429,977
3034452209,-6316,-327,-13022,-2500,496,955
3034472198,-5228,1213,-11290,-2445,434,918
3034492187,-5017,2205,-11453,-2392,343,897
3034512176,-5474,2317,-11903,-2266,321,863
3034532165,-4706,3027,-11003,-2138,222,790
3034552154,-4610,4145,-10710,-2004,142,760
3034572143,-4184,5053,-8899,-1864,109,730
3034592132,-3676,5983,-8704,-1755,84,693
3034612121,-4045,6622,-9358,-1647,6,641
3034632110,-4323,7203,-10032,-1502,-33,575
3034652099,-4389,7897,-10099,-1342,7,527
3034672088,-3868,8832,-8962,-1248,5,497
3034692077,-3745,9778,-8706,-1210,-53,499
3034712066,-4300,10500,-8802,-1156,-100,513
3034732055,-4959,11068,-8562,-1060,-56,502
3034752044,-4630,11675,-8038,-934,-18,474
3034772033,-4663,12086,-6888,-799,-28,439
3034792022,-4814,12170,-5913,-646,-24,368
3034812011,-4723,12061,-5295,-464,-3,257
3034832000,-4169,12033,-6417,-294,-39,129
3034851989,-4529,11619,-6199,-122,-104,10
3034871978,-4184,11404,-5473,66,-116,-117
3034891967,-3224,11247,-5350,227,-140,-207
3034911956,-2972,10937,-5708,373,-233,-269
3034931945,-3084,10667,-6159,538,-336,-312
3034951934,-3311,10472,-6826,747,-396,-365
3034971923,-3439,10147,-6662,985,-441,-446
3034991912,-3578,9588,-6608,1204,-503,-531
3035011901,-3641,9104,-6581,1385,-553,-603
3035031890,-4332,8431,-6793,1523,-550,-667
3035051879,-4864,7693,-8262,1662,-525,-761
3035071868,-5497,6877,-9251,1807,-584,-880
3035091857,-5719,6237,-9039,1930,-607,-998
3035111846,-5695,5473,-8428,2009,-590,-1093
3035131835,-6020,4226,-10514,2061,-582,-1165
3035151824,-7304,2749,-12248,2104,-653,-1234
3035171813,-7990,1813,-11595,2142,-643,-1286
3035191802,-7342,1584,-10055,2132,-597,-1287
3035211791,-8123,821,-12549,2107,-677,-1268
3035231781,-9425,-558,-13648,2136,-810,-1298
3035251770,-10795,-604,-13882,2225,-877,-1368
3035271759,-9919,-906,-13385,2332,-671,-1439
3035291748,-9010,-2369,-11025,2268,-674,-1427
3035311737,-10475,-3447,-10968,2121,-901,-1407
3035331726,-12077,-4569,-13547,2101,-881,-1449
3035351715,-11958,-5915,-14045,2166,-623,-1484
3035371704,-11203,-6727,-10461,2175,-538,-1469
3035391693,-11585,-6881,-10071,2064,-677,-1457
3035411682,-11666,-7821,-10898,1992,-661,-1476
3035431671,-12359,-9392,-13141,1979,-681,-1505
3035451660,-12890,-9935,-11648,1983,-710,-1516
3035471649,-11315,-9492,-9093,1960,-598,-1451
3035491638,-11126,-9845,-8619,1898,-521,-1357
3035511627,-12378,-11140,-10514,1804,-555,-1357
3035531616,-12494,-12081,-11609,1772,-587,-1390
3035551605,-11604,-11908,-9305,1788,-487,-1329
3035571594,-10571,-11779,-6444,1729,-437,-1264
3035591583,-11185,-12459,-7305,1619,-556,-1271
3035611572,-10797,-13463,-8518,1588,-556,-1275
3035631561,-11045,-13816,-8623,1594,-451,-1206
3035651550,-10687,-13839,-7375,1607,-291,-1133
3035671539,-9721,-14018,-5826,1512,-252,-1075
3035691528,-9880,-14545,-6270,1327,-373,-1033
3035711517,-9831,-14863,-6870,1215,-339,-956
3035731506,-9608,-14856,-5919,1179,-202,-821
3035751495,-9547,-14468,-5405,1119,-204,-743
3035771484,-9037,-14423,-5312,1047,-242,-724
3035791473,-8820,-14434,-5117,998,-221,-677
3035811462,-8816,-14517,-4632,1001,-113,-603
3035831451,-8466,-14643,-3817,971,-27,-556
3035851440,-8129,-14813,-3644,867,-31,-540
3035871429,-7964,-15165,-3733,760,3,-496
3035891418,-7837,-15341,-3603,661,59,-437
3035911407,-7646,-15464,-3209,549,57,-397
3035931396,-7408,-15415,-2801,427,61,-367
3035951385,-7089,-15211,-2932,317,121,-304
3035971374,-7128,-15201,-3162,222,172,-226
3035991363,-7467,-15283,-3283,116,151,-167
3036011352,-7570,-15418,-3034,-2,147,-134
3036031341,-7383,-15273,-2987,-130,153,-96
3036051330,-7401,-15316,-2984,-228,188,-18
3036071319,-7676,-15324,-3269,-306,200,65
3036091308,-7959,-15218,-3940,-404,198,130
3036111297,-8115,-15311,-3833,-526,209,189
3036131286,-8233,-15166,-4150,-674,241,249
3036151275,-8598,-15192,-4580,-793,286,324
3036171264,-8810,-15556,-4900,-911,350,406
3036191253,-8992,-15459,-5589,-1031,377,473
3036211242,-9334,-15266,-6106,-1133,471,538
3036231231,-9192,-15176,-6531,-1258,573,610
3036251220,-9293,-15169,-7078,-1405,600,696
3036271209,-9480,-15058,-8023,-1529,659,804
3036291198,-9381,-14874,-8257,-1628,829,927
3036311187,-9709,-14510,-8934,-1780,845,991
3036331176,-9901,-14412,-9326,-1918,819,1028
3036351165,-10298,-14178,-10042,-1998,852,1079
3036371154,-10008,-13969,-9957,-2027,996,1141
3036391143,-9655,-13560,-9730,-2091,1077,1182
3036411132,-9791,-13112,-10678,-2207,1020,1165
3036431121,-9672,-12702,-11594,-2287,1004,1156
3036451110,-9793,-12305,-12334,-2339,1015,1173
3036471099,-9288,-12151,-12375,-2393,999,1176
3036491088,-8425,-11074,-11850,-2469,850,1186
3036511077,-8244,-9623,-12086,-2525,626,1203
3036531066,-8176,-8709,-12332,-2507,500,1197
3036551055,-8468,-8171,-13456,-2442,473,1176
3036571044,-8231,-7687,-13640,-2392,418,1121
3036591033,-7548,-6713,-12996,-2383,363,1089
3036611022,-7308,-5967,-12317,-2403,312,1082
3036631011,-7459,-5379,-13182,-2445,208,1051
3036651000,-8165,-4569,-14347,-2459,134,1026
3036670989,-8549,-3652,-15161,-2414,226,1022
3036690979,-7890,-2612,-14611,-2364,431,1032
3036710968,-6761,-1144,-12613,-2397,530,1036
3036730957,-6746,865,-12119,-2478,484,1027
3036750946,-6858,2019,-12826,-2463,508,1002
3036770935,-7277,2520,-12742,-2373,568,960
3036790924,-6952,3277,-11758,-2230,659,905
3036810913,-5626,4133,-9812,-2079,726,852
3036830902,-5202,4895,-9201,-1981,712,820
3036850891,-5456,5141,-10436,-1879,703,776
3036870880,-5232,5367,-10482,-1763,676,725
3036890869,-4394,6221,-9240,-1655,621,684
3036910858,-4061,7152,-8515,-1566,553,660
3036930847,-3462,7933,-8743,-1469,495,627
3036950836,-3642,8888,-9809,-1367,397,587
3036970825,-3354,9739,-9372,-1225,317,557
3036990814,-3062,10473,-8224,-1077,215,514
3037010803,-2161,11060,-6551,-943,117,452
3037030792,-2014,11368,-6213,-819,-14,389
3037050781,-2395,11413,-6375,-659,-184,316
3037070770,-2650,11584,-5794,-447,-275,230
3037090759,-2283,11655,-4935,-216,-327,134
3037110748,-2056,11461,-5144,-6,-422,29
3037130737,-2253,11170,-5600,186,-527,-94
3037150726,-2252,11059,-5940,399,-565,-219
3037170715,-2263,10771,-5981,617,-605,-333
3037190704,-2472,10021,-5259,825,-692,-459
3037210693,-2354,9578,-6253,1024,-771,-586
3037230682,-3018,9041,-8052,1234,-816,-676
3037250671,-3694,8409,-8381,1461,-755,-764
3037270660,-4014,7878,-8502,1631,-708,-877
3037290649,-4123,7075,-8753,1722,-708,-993
3037310638,-4533,6275,-8871,1762,-730,-1075
3037330627,-6270,5468,-10461,1813,-691,-1143
3037350616,-6741,4560,-11292,1931,-549,-1220
3037370605,-7034,3669,-11029,1981,-535,-1284
3037390594,-7304,3167,-9781,1981,-606,-1319
3037410583,-7901,2581,-10547,1988,-612,-1329
3037430572,-8615,1561,-12051,2013,-631,-1375
3037450561,-9819,563,-13189,2065,-595,-1411
3037470550,-8831,-270,-9143,2124,-556,-1433
3037490539,-7841,-593,-8725,2133,-768,-1459
3037510528,-9649,-2659,-12454,2170,-1078,-1528
3037530517,-11832,-5764,-12634,2266,-962,-1584
3037550506,-11693,-6353,-10801,2245,-855,-1593
3037570495,-10943,-6104,-10947,2199,-835,-1499
3037590484,-11267,-7380,-14277,2156,-925,-1404
3037610473,-12935,-8841,-14397,2030,-1042,-1376
3037630462,-13709,-7636,-14228,1942,-1032,-1429
3037650451,-12439,-6831,-12677,1949,-976,-1534
3037670440,-12526,-8127,-12481,1900,-985,-1622
3037690429,-12180,-9667,-9929,1835,-886,-1662
3037710418,-11972,-9929,-8961,1770,-809,-1618
3037730407,-12168,-10042,-9810,1772,-738,-1567
3037750396,-12488,-11195,-11589,1782,-621,-1575
3037770385,-11774,-12195,-9523,1716,-564,-1606
3037790374,-11014,-12121,-7084,1595,-483,-1546
3037810363,-10636,-12427,-7598,1520,-304,-1438
3037830352,-10560,-13563,-7757,1415,-211,-1362
3037850341,-11201,-14157,-8178,1266,-277,-1342
3037870330,-11183,-13869,-8404,1227,-123,-1286
3037890319,-10212,-13624,-6712,1258,120,-1159
3037910308,-9891,-14006,-5975,1229,148,-1027
3037930297,-9911,-14285,-6390,1158,92,-927
3037950286,-9839,-14231,-7165,1133,45,-858
3037970275,-9473,-14210,-6000,1136,92,-792
3037990264,-8995,-14399,-3907,1054,68,-743
3038010253,-8136,-14502,-4565,936,-43,-691
3038030242,-8087,-14844,-4736,869,-116,-595
3038050231,-8422,-14892,-4538,837,-109,-497
3038070220,-8069,-14783,-3741,829,-60,-437
3038090209,-7820,-14847,-3309,762,-195,-447
3038110198,-7380,-15029,-3260,672,-323,-449
3038130187,-7428,-15393,-2564,619,-352,-397
3038150177,-7442,-15542,-2410,572,-353,-353
3038170166,-6720,-15443,-2138,512,-368,-328
3038190155,-6854,-15279,-2343,434,-488,-308
3038210144,-7205,-15233,-2194,380,-444,-263
3038230133,-7121,-15340,-2042,336,-316,-201
3038250122,-7277,-15294,-2442,264,-296,-159
3038270111,-7392,-15231,-3093,169,-315,-139
3038290100,-7492,-15345,-3052,103,-198,-99
3038310089,-7284,-15257,-2285,45,-36,-50
3038330078,-7139,-15428,-2301,-55,7,-14
3038350067,-7257,-15714,-3177,-182,4,22
3038370056,-7418,-15623,-3588,-273,154,99
3038390045,-7383,-15524,-3192,-344,306,181
3038410034,-7727,-15493,-3467,-444,323,231
3038430023,-7696,-15546,-3920,-544,378,289
3038450012,-7962,-15685,-4237,-640,526,386
3038470001,-8416,-15507,-4663,-773,622,461
3038489990,-8476,-15401,-4509,-936,672,535
3038509979,-8818,-15455,-5452,-1110,682,619
3038529968,-9128,-15350,-6246,-1249,756,707
3038549957,-9336,-15126,-6569,-1358,904,817
3038569946,-9632,-14836,-7162,-1462,981,893
3038589935,-9617,-14607,-7422,-1554,1008,937
3038609924,-9554,-14607,-7835,-1634,1028,994
3038629913,-9670,-14554,-8198,-1691,1058,1067
3038649902,-9972,-14392,-8463,-1767,1084,1111
3038669891,-10014,-14290,-8950,-1842,1129,1130
3038689880,-9963,-13937,-9801,-1928,1150,1125
3038709869,-9784,-13256,-10089,-2006,1148,1113
3038729858,-9780,-12760,-10597,-2048,1142,1115
3038749847,-9156,-12411,-10342,-2069,1182,1133
3038769836,-9052,-11779,-11094,-2134,1082,1149
3038789825,-8964,-11079,-11636,-2180,994,1167
3038809814,-8929,-10367,-12573,-2217,930,1166
3038829803,-8539,-9449,-12756,-2236,895,1153
3038849792,-8500,-8739,-13148,-2235,826,1130
3038869781,-8254,-8297,-13422,-2198,839,1110
3038889770,-7971,-7894,-13589,-2194,883,1089
3038909759,-7267,-7098,-13296,-2275,789,1051
3038929748,-7006,-6167,-13629,-2340,732,1031
3038949737,-6493,-4695,-13349,-2387,677,999
3038969726,-6441,-3284,-13710,-2352,688,949
3038989715,-6292,-2803,-14758,-2253,711,864
3039009704,-5406,-2288,-13718,-2164,707,776
3039029693,-4910,-1261,-13180,-2114,679,734
3039049682,-4601,-648,-12677,-2095,673,716
3039069671,-4788,-505,-13612,-2098,617,691
3039089660,-5060,105,-13761,-2086,534,663
3039109649,-4767,1392,-13021,-2030,516,651
3039129638,-3960,2641,-12105,-1958,537,652
3039149627,-3634,3610,-11876,-1910,551,649
3039169616,-3879,4733,-13100,-1883,492,601
3039189605,-3801,5431,-12868,-1815,468,523
3039209594,-3507,6276,-12044,-1730,458,459
3039229583,-3415,6659,-11675,-1623,468,401
3039249572,-2663,7212,-10132,-1549,445,360
3039269561,-2717,8086,-10641,-1507,397,357
3039289550,-3053,8426,-10674,-1424,419,338
3039309539,-3010,9048,-10199,-1323,441,285
3039329528,-2660,9832,-8560,-1203,450,225
3039349517,-2437,10360,-6938,-1078,362,153
3039369506,-2362,10686,-6297,-885,274,68
3039389495,-2146,10725,-6691,-640,219,-6
3039409484,-2473,10734,-6613,-406,81,-90
3039429473,-2472,10596,-6171,-151,-25,-182
3039449462,-2090,10225,-6051,97,-116,-257
3039469451,-2011,9921,-6800,326,-220,-303
3039489440,-2344,9484,-7727,537,-297,-316
3039509429,-2704,9296,-8690,715,-373,-311
3039529418,-2834,9311,-8410,865,-454,-295
3039549407,-2884,9258,-7517,978,-523,-261
3039569396,-3774,9082,-8026,1104,-560,-220
3039589385,-3846,8876,-9568,1285,-547,-203
3039609375,-4622,8378,-10736,1467,-551,-184
3039629364,-4829,7659,-9976,1615,-568,-208
3039649353,-4497,7224,-9481,1692,-607,-270
3039669342,-4426,6605,-11425,1764,-635,-349
3039689331,-5425,5282,-13080,1854,-622,-436
3039709320,-5559,4250,-11806,1932,-653,-552
3039729309,-4611,3823,-9625,1973,-701,-642
3039749298,-4845,3063,-11767,2026,-681,-695
3039769287,-5136,1311,-13288,2102,-651,-756
3039789276,-6535,256,-15048,2137,-726,-809
3039809265,-5681,-172,-12963,2173,-756,-860
3039829254,-5435,-400,-13627,2141,-765,-871
3039849243,-6492,-1676,-14610,2123,-706,-889
3039869232,-7595,-3201,-15735,2113,-608,-922
3039889221,-7070,-3415,-13402,2056,-598,-928
3039909210,-8234,-3268,-14206,2008,-597,-938
3039929199,-7685,-4308,-13636,2059,-370,-971
3039949188,-8906,-5550,-14925,2056,-203,-951
3039969177,-8280,-5657,-13128,2028,-300,-1008
3039989166,-8171,-5635,-12300,2023,-367,-1068
3040009155,-8949,-6897,-14229,2093,-294,-1141
3040029144,-7952,-8619,-12933,2193,-130,-1181
3040049133,-8086,-9245,-12076,2192,-208,-1150
3040069122,-7875,-9896,-11292,2168,-326,-1117
3040089111,-7854,-11243,-11883,2133,-368,-1070
3040109100,-8247,-12219,-11770,2081,-386,-983
3040129089,-8702,-12143,-11946,2047,-366,-875
3040149078,-8167,-12239,-10812,2032,-367,-821
3040169067,-8226,-12513,-10204,1969,-485,-812
3040189056,-8362,-12595,-9684,1931,-556,-816
3040209045,-8738,-13031,-10176,1971,-518,-835
3040229034,-8113,-13745,-8700,1991,-464,-848
3040249023,-7985,-14042,-8229,1943,-521,-850
3040269012,-7282,-14385,-7371,1892,-547,-862
3040289001,-7110,-14899,-6954,1824,-536,-853
3040308990,-7450,-15398,-7133,1732,-520,-836
3040328979,-6988,-15630,-6459,1645,-455,-788
3040348968,-6588,-15735,-5841,1544,-432,-704
3040368957,-7003,-15934,-5451,1459,-495,-660
3040388946,-7112,-16199,-5509,1396,-543,-661
3040408935,-6771,-16258,-5108,1330,-511,-639
3040428924,-6587,-16159,-4695,1250,-494,-586
3040448913,-6642,-16188,-4287,1176,-452,-525
3040468902,-6507,-16243,-3903,1088,-416,-476
3040488891,-6626,-16336,-3719,967,-432,-443
3040508880,-6711,-16339,-3717,849,-372,-409
3040528869,-6513,-16204,-3440,746,-283,-370
3040548858,-6383,-16074,-2880,642,-208,-322
3040568847,-6225,-16083,-2417,519,-170,-277
3040588836,-6234,-16214,-2705,379,-165,-234
3040608825,-6325,-16193,-2928,253,-152,-192
3040628814,-6255,-16087,-3199,143,-51,-133
3040648803,-6094,-15929,-2810,31,46,-63
3040668792,-6120,-15912,-2668,-100,61,-3
3040688781,-6016,-16056,-2751,-227,51,50
3040708770,-6290,-16231,-3059,-350,35,103
3040728759,-6183,-16322,-3143,-450,85,170
3040748748,-6284,-16255,-3440,-559,124,245
3040768737,-6409,-16376,-3290,-685,65,301
3040788726,-6745,-16274,-3850,-827,-2,355
3040808715,-6975,-16213,-4253,-950,40,428
3040828704,-7255,-16169,-4372,-1095,117,510
3040848693,-7397,-15982,-5028,-1260,274,620
3040868682,-7683,-15952,-5929,-1437,345,718
3040888671,-8171,-16168,-7006,-1610,343,780
3040908660,-8341,-16140,-7904,-1774,380,830
3040928649,-8358,-15923,-8188,-1910,470,901
3040948638,-8556,-15765,-8844,-2025,606,984
3040968627,-8610,-15747,-9018,-2121,764,1058
3040988616,-8767,-15726,-9796,-2243,847,1131
3041008605,-9150,-15715,-10658,-2361,894,1210
3041028594,-9429,-15495,-10975,-2462,972,1290
3041048583,-9359,-14897,-11338,-2571,1055,1336
3041068572,-9648,-14335,-12006,-2673,1065,1347
3041088562,-9752,-13960,-12814,-2748,1070,1323
3041108551,-9299,-13094,-12311,-2803,1065,1302
3041128540,-8690,-11685,-11919,-2848,1043,1300
3041148529,-7562,-9994,-10925,-2888,922,1273
3041168518,-8012,-8765,-12170,-2879,772,1221
3041188507,-8828,-8842,-13829,-2778,735,1146
3041208496,-8222,-8978,-14409,-2667,777,1094
3041228485,-7248,-8501,-14179,-2626,858,1107
3041248474,-5948,-7423,-12261,-2709,812,1137
3041268463,-5685,-5548,-12863,-2873,616,1142
3041288452,-5952,-3492,-13955,-2941,494,1121
3041308441,-6262,-2033,-14322,-2866,468,1086
3041328430,-5873,-788,-14100,-2719,474,1028
3041348419,-4652,126,-11871,-2557,412,943
3041368408,-4113,1137,-10571,-2436,292,876
3041388397,-4044,1478,-10718,-2313,195,815
3041408386,-4514,1461,-12469,-2169,104,755
3041428375,-4581,1642,-13134,-2006,40,716
3041448364,-4336,2256,-12164,-1895,-45,716
3041468353,-3475,3392,-10418,-1856,-25,773
3041488342,-3605,4924,-11000,-1859,34,848
3041508331,-4245,6419,-11183,-1843,117,882
3041528320,-4506,7964,-10711,-1764,275,876
3041548309,-3441,9298,-8857,-1638,382,813
3041568298,-3176,10311,-7517,-1507,379,710
3041588287,-3084,10751,-6530,-1338,398,574
3041608276,-2624,11079,-7039,-1145,426,427
3041628265,-2926,10983,-7131,-944,350,270
3041648254,-2811,10873,-6366,-731,305,116
3041668243,-2275,10811,-4786,-532,322,5
3041688232,-1828,10749,-5687,-352,258,-88
3041708221,-2250,10670,-7303,-186,134,-142
3041728210,-2507,11069,-6838,-15,63,-177
3041748199,-2466,11402,-6059,157,-20,-207
3041768188,-2364,11291,-6487,318,-137,-240
3041788177,-2700,10935,-7676,490,-199,-238
3041808166,-3104,10990,-7592,651,-253,-243
3041828155,-3283,11072,-7429,819,-316,-259
3041848144,-3381,10450,-7104,993,-365,-284
3041868133,-3533,9896,-7512,1152,-416,-316
3041888122,-3868,9341,-8549,1304,-419,-341
3041908111,-4391,8622,-9407,1451,-383,-391
3041928100,-4514,7866,-9830,1586,-398,-483
3041948089,-4235,7014,-9953,1697,-466,-574
3041968078,-4471,6501,-10267,1776,-494,-615
3041988067,-5036,5641,-11149,1859,-463,-648
3042008056,-5360,4568,-12052,1955,-393,-686
3042028045,-5303,3970,-11568,2020,-404,-717
3042048034,-5106,3810,-10769,2035,-474,-738
3042068023,-6471,3003,-12852,2075,-519,-755
3042088012,-7150,1581,-13790,2206,-415,-795
3042108001,-6731,832,-13774,2277,-427,-827
3042127990,-6216,247,-12755,2234,-568,-834
3042147979,-7593,-668,-13507,2170,-578,-832
3042167968,-8392,-1740,-15182,2192,-410,-849
3042187957,-7396,-2572,-14606,2226,-305,-837
3042207946,-7801,-2932,-13076,2165,-504,-825
3042227935,-8054,-3338,-13914,2164,-605,-859
3042247924,-8135,-4738,-15522,2262,-430,-866
3042267913,-8002,-6074,-14514,2278,-378,-865
3042287902,-7699,-6133,-12954,2159,-562,-894
3042307891,-8179,-6466,-12903,2055,-614,-919
3042327880,-8622,-7723,-13767,2028,-500,-958
3042347869,-8980,-8561,-13839,2001,-471,-992
3042367858,-8174,-9037,-11650,1966,-493,-1000
3042387847,-8298,-9234,-10637,1865,-650,-1004
3042407836,-9233,-9589,-11990,1844,-677,-1022
3042427825,-9595,-10777,-13196,1881,-510,-1045
3042447814,-9074,-11041,-12127,1871,-415,-1007
3042467803,-8492,-11314,-9708,1873,-387,-929
3042487792,-8492,-11314,-9708,1798,-504,-914
3042507781,-8206,-11801,-8853,1798,-504,-914
3042527770,-9140,-12386,-10266,1769,-582,-932
3042547760,-8994,-13128,-10415,1849,-411,-918
3042567749,-8502,-13563,-9332,1873,-239,-856
3042587738,-7473,-13949,-6903,1780,-289,-809
3042607727,-7752,-14559,-7241,1637,-432,-785
3042627716,-8271,-15387,-8038,1588,-417,-782
3042647705,-8103,-15625,-7687,1592,-287,-754
3042667694,-7547,-15318,-6272,1566,-197,-719
3042687683,-7031,-15012,-5793,1496,-208,-704
3042707672,-7052,-15070,-5989,1426,-295,-696
3042727661,-7195,-15139,-6177,1383,-333,-650
3042747650,-7029,-14932,-5381,1370,-302,-577
3042767639,-6839,-15157,-4267,1340,-341,-534
3042787628,-6672,-15521,-4171,1263,-402,-499
3042807617,-6957,-15759,-3999,1165,-426,-455
3042827606,-7370,-15977,-3978,1062,-444,-415
3042847595,-7309,-15944,-3596,951,-369,-380
3042867584,-7108,-15949,-3301,821,-302,-344
3042887573,-7110,-16174,-3334,688,-284,-316
3042907562,-7049,-16236,-3775,564,-249,-281
3042927551,-6871,-16224,-3640,473,-179,-230
3042947540,-6719,-16152,-3456,387,-102,-182
3042967529,-6296,-16082,-3039,275,-50,-141
3042987518,-6176,-15928,-3238,150,-49,-82
3043007507,-6317,-15870,-3372,22,-6,-7
3043027496,-6427,-15779,-3410,-102,84,63
3043047485,-6327,-15693,-3074,-225,102,108
3043067474,-6562,-15660,-3156,-357,97,153
3043087463,-6516,-15677,-3224,-479,151,203
3043107452,-6707,-15705,-3645,-595,204,257
3043127441,-6765,-15952,-3675,-720,243,307
3043147430,-6852,-15966,-3801,-899,193,340
3043167419,-7112,-15684,-4624,-1046,139,378
3043187408,-7513,-15437,-5317,-1158,248,458
3043207397,-7947,-15341,-6356,-1277,359,526
3043227386,-8282,-15769,-6620,-1414,457,578
3043247375,-8115,-15976,-7191,-1592,498,618
3043267364,-8173,-15960,-7775,-1751,539,685
3043287353,-8340,-15880,-8426,-1876,631,768
3043307342,-8579,-15894,-8960,-1975,674,826
3043327331,-8470,-15685,-9585,-2062,703,883
3043347320,-8444,-15175,-9843,-2133,714,951
3043367309,-8511,-14699,-9965,-2191,757,1003
3043387298,-8524,-14478,-10156,-2270,773,1016
3043407287,-8841,-14155,-10806,-2344,715,1007
3043427276,-8611,-13652,-10610,-2362,688,993
3043447265,-8478,-12951,-10902,-2368,678,985
3043467254,-7999,-12535,-10563,-2391,703,966
3043487243,-8123,-11954,-11785,-2459,625,938
3043507232,-8240,-11529,-12588,-2521,582,927
3043527221,-8012,-10856,-13287,-2564,588,941
3043547210,-7585,-9923,-13288,-2589,617,972
3043567199,-7401,-8767,-12874,-2639,566,995
3043587188,-7530,-7533,-13802,-2664,504,1007
3043607177,-7695,-6764,-14675,-2625,532,1018
3043627166,-7530,-5728,-14243,-2579,583,1035
3043647155,-7103,-4598,-13343,-2540,662,1050
3043667144,-6639,-3589,-12853,-2538,632,1034
3043687133,-7019,-2693,-13719,-2531,550,996
3043707122,-6912,-2066,-13198,-2452,615,945
3043727111,-6634,-1089,-12788,-2384,675,890
3043747100,-5900,-187,-12113,-2327,683,812
3043767089,-5556,815,-12624,-2280,721,752
3043787078,-5201,1662,-12227,-2232,719,689
3043807067,-4837,2783,-12090,-2181,686,631
3043827056,-4296,4010,-11382,-2099,710,592
3043847045,-3733,4832,-11348,-2002,718,561
3043867034,-3191,5811,-10336,-1915,616,523
3043887023,-3147,6735,-10613,-1810,501,503
3043907012,-2589,7441,-9837,-1682,418,475
3043927001,-2433,8091,-9121,-1537,351,462
3043946990,-2557,8552,-9046,-1377,250,428
3043966979,-2342,9161,-8071,-1212,109,389
3043986968,-2523,9721,-7386,-1041,-31,369
3044006958,-2698,9984,-6339,-841,-98,337
3044026947,-2558,10134,-5855,-627,-120,284
3044046936,-2173,10449,-6468,-438,-224,225
3044066925,-2516,10655,-7006,-227,-358,157
3044086914,-2524,10734,-7063,27,-446,73
3044106903,-2403,10655,-7078,277,-532,-22
3044126892,-2148,10418,-7539,507,-579,-110
3044146881,-1990,9814,-7355,691,-655,-182
3044166870,-2332,9638,-7589,844,-712,-239
3044186859,-2532,9137,-8260,1031,-679,-282
3044206848,-2827,8359,-9302,1224,-710,-342
3044226837,-3595,7700,-10382,1385,-714,-418
3044246826,-3738,7354,-10347,1486,-574,-488
3044266815,-4305,7048,-11080,1517,-467,-550
3044286804,-4787,6383,-11092,1526,-413,-618
3044306793,-5051,6223,-11124,1528,-346,-667
3044326782,-5604,5815,-11008,1554,-315,-709
3044346771,-6552,5073,-12498,1637,-305,-771
3044366760,-6290,4266,-12171,1760,-297,-834
3044386749,-6333,4107,-11764,1796,-360,-857
3044406738,-6181,3341,-10425,1823,-423,-874
3044426727,-7304,1903,-13762,1890,-468,-885
3044446716,-7355,378,-13496,1977,-541,-910
3044466705,-7959,-50,-14137,1996,-583,-888
3044486694,-7372,-1008,-12034,2001,-544,-854
3044506683,-8080,-2162,-13311,1968,-595,-826
3044526672,-9017,-3295,-15236,1975,-663,-840
3044546661,-8911,-4201,-15469,2071,-447,-822
3044566650,-7682,-4554,-13144,2079,-302,-781
3044586639,-7590,-4482,-11191,1947,-487,-823
3044606628,-9187,-4713,-13519,1898,-620,-949
3044626617,-9532,-6271,-15315,2053,-325,-1072
3044646606,-8792,-7032,-12932,2132,-161,-1145
3044666595,-7904,-6983,-9578,2096,-317,-1201
3044686584,-8553,-7522,-11976,2037,-535,-1256
3044706573,-8331,-9488,-12592,2076,-431,-1260
3044726562,-8537,-10106,-12889,2063,-326,-1158
3044746551,-7808,-9977,-11000,2001,-374,-1044
3044766540,-8078,-10429,-10181,1894,-551,-1001
3044786529,-8828,-11113,-11122,1843,-620,-1011
3044806518,-9160,-12148,-11474,1883,-532,-1001
3044826507,-8980,-12465,-10681,1919,-458,-946
3044846496,-8820,-12730,-8780,1917,-425,-893
3044866485,-8736,-13229,-8350,1863,-443,-880
3044886474,-8747,-13820,-9005,1801,-449,-878
3044906463,-8878,-14523,-9142,1753,-425,-859
3044926452,-8554,-14952,-8165,1704,-398,-815
3044946441,-8233,-14990,-7134,1638,-457,-774
3044966430,-8208,-15190,-6847,1609,-484,-762
3044986419,-7923,-15645,-6079,1575,-459,-737
3045006408,-7898,-15795,-5907,1528,-453,-687
3045026397,-7639,-15706,-5264,1515,-370,-623
3045046386,-7333,-15865,-4542,1483,-315,-576
3045066375,-7024,-15996,-4114,1415,-328,-558
3045086364,-6853,-16079,-3516,1322,-372,-546
3045106353,-6568,-15952,-2983,1223,-394,-515
3045126342,-6620,-15886,-2961,1138,-374,-461
3045146331,-6729,-15997,-3020,1060,-345,-428
3045166320,-6878,-16204,-3132,973,-352,-424
3045186309,-6778,-16242,-3119,892,-320,-421
3045206298,-6301,-16255,-2618,815,-231,-385
3045226287,-6235,-16172,-2158,717,-194,-335
3045246276,-6322,-16169,-2308,603,-204,-299
3045266265,-6108,-16101,-2439,495,-153,-256
3045286254,-6106,-16085,-2317,385,-92,-205
3045306243,-5863,-15934,-2328,274,-33,-150
3045326232,-5608,-15686,-1948,173,32,-97
3045346221,-5463,-15444,-2088,69,-4,-64
3045366210,-5551,-15316,-1955,-26,-58,-34
3045386199,-5596,-15374,-1855,-113,-23,17
3045406188,-5450,-15400,-1889,-195,3,62
3045426177,-5423,-15410,-1794,-266,4,92
3045446166,-5554,-15561,-1823,-326,16,113
3045466156,-5500,-15811,-1552,-390,35,131
3045486145,-5507,-15960,-1493,-477,40,160
3045506134,-5672,-16004,-1709,-569,35,185
3045526123,-5821,-16128,-2010,-646,59,213
3045546112,-5966,-16308,-2426,-716,111,250
3045566101,-6090,-16344,-2732,-786,156,288
3045586090,-6333,-16228,-3185,-856,193,330
3045606079,-6578,-16155,-3457,-940,260,369
3045626068,-6683,-16056,-3889,-1046,353,422
3045646057,-7182,-16072,-4731,-1151,419,479
3045666046,-7415,-15966,-5036,-1262,468,514
3045686035,-7889,-15714,-5640,-1382,544,553
3045706024,-7828,-15676,-5998,-1479,616,600
3045726013,-8110,-15698,-6315,-1562,627,650
3045746002,-7751,-15316,-6357,-1632,666,717
3045765991,-8270,-14922,-6702,-1690,737,815
3045785980,-8514,-14838,-7336,-1771,736,848
3045805969,-8404,-14806,-7725,-1866,703,854
3045825958,-8834,-14560,-8774,-1927,677,874
3045845947,-9006,-14332,-9337,-1926,787,889
3045865936,-8819,-14250,-9974,-1926,896,890
3045885925,-8625,-13911,-10085,-1964,901,869
3045905914,-8642,-13333,-10544,-2013,859,849
3045925903,-7785,-12769,-10398,-2061,851,847
3045945892,-7993,-12268,-11376,-2119,827,890
3045965881,-8355,-11916,-12620,-2160,796,923
3045985870,-8108,-11172,-13278,-2177,767,943
3046005859,-7844,-10065,-13425,-2197,708,961
3046025848,-7738,-9225,-13244,-2219,685,978
3046045837,-7756,-8704,-13956,-2253,679,977
3046065826,-7568,-8079,-14000,-2295,682,978
3046085815,-7535,-7169,-14429,-2332,661,987
3046105804,-7224,-6191,-14416,-2336,706,970
3046125793,-7036,-5525,-14819,-2347,768,929
3046145782,-6212,-4798,-14010,-2408,741,875
3046165771,-5975,-3679,-14104,-2478,663,853
3046185760,-5620,-2566,-12871,-2491,609,836
3046205749,-5560,-1439,-12954,-2436,650,825
3046225738,-4831,-174,-11636,-2321,685,783
3046245727,-5275,384,-14037,-2181,639,716
3046265716,-4396,20,-12655,-2028,618,616
3046285705,-3683,1186,-12144,-1988,508,573
3046305694,-3125,2271,-11537,-1954,421,551
3046325683,-3034,2655,-12020,-1919,389,539
3046345672,-3065,3588,-12372,-1888,280,528
3046365661,-3330,4705,-13773,-1824,176,534
3046385650,-3006,5581,-12920,-1721,111,562
3046405639,-3205,6748,-11780,-1632,170,625
3046425628,-2531,7676,-10287,-1576,186,648
3046445617,-2930,8310,-10265,-1536,146,669
3046465606,-3914,8586,-10471,-1438,141,659
3046485595,-4407,8978,-11092,-1295,188,602
3046505584,-3362,9525,-9366,-1154,221,516
3046525573,-2611,10090,-8116,-1061,165,437
3046545562,-2541,10477,-7720,-977,96,350
3046565551,-2377,10358,-8554,-831,156,273
3046585540,-2163,10442,-9648,-678,157,196
3046605529,-1933,10676,-8736,-543,45,122
3046625518,-1959,10966,-8674,-401,-20,72
3046645507,-1085,10860,-7082,-236,21,49
3046665496,-978,11098,-6927,-154,-75,25
3046685485,-1396,11132,-8190,-30,-172,-18
3046705474,-1643,11046,-8474,148,-213,-66
3046725463,-1489,11099,-8326,321,-264,-118
3046745452,-1224,11018,-7492,459,-328,-162
3046765441,-1787,10607,-8105,580,-387,-209
3046785430,-2353,10076,-8972,722,-392,-269
3046805419,-2622,9705,-9662,857,-383,-318
3046825408,-2676,9464,-9231,967,-428,-369
3046845397,-2900,9221,-8759,1054,-459,-419
3046865386,-3272,8879,-9936,1155,-412,-472
3046885375,-3582,8247,-11453,1266,-360,-530
3046905364,-4343,7767,-12707,1346,-374,-588
3046925354,-4342,7370,-11389,1416,-369,-642
3046945343,-4159,6722,-10197,1442,-323,-655
3046965332,-4133,6415,-11167,1456,-277,-655
3046985321,-5194,5638,-13352,1495,-273,-642
3047005310,-6101,4925,-13582,1562,-309,-651
3047025299,-5708,5001,-11981,1607,-324,-667
3047045288,-5201,4845,-12270,1633,-344,-659
3047065277,-5589,3770,-12111,1676,-422,-667
3047085266,-6297,2832,-14753,1731,-521,-708
3047105255,-6601,2125,-13632,1816,-648,-771
3047125244,-6107,1564,-12386,1873,-642,-785
3047145233,-5954,710,-13387,1879,-682,-786
3047165222,-7326,-979,-13630,1904,-709,-819
3047185211,-7258,-2058,-13594,1938,-638,-866
3047205200,-7178,-2263,-13974,1907,-633,-881
3047225189,-7520,-2966,-14016,1880,-550,-893
3047245178,-7447,-3681,-13257,1823,-509,-934
3047265167,-7935,-3731,-13818,1776,-514,-962
3047285156,-8531,-4249,-14414,1821,-395,-1008
3047305145,-7469,-5253,-13043,1894,-253,-1053
3047325134,-7482,-5563,-12302,1877,-353,-1042
3047345123,-8299,-6208,-12724,1938,-415,-1043
3047365112,-8190,-7673,-12759,2033,-356,-1050
3047385101,-8106,-8627,-11603,2047,-340,-1032
3047405090,-8191,-8975,-11208,2021,-345,-988
3047425079,-8250,-9878,-11321,2038,-338,-946
3047445068,-9394,-11594,-13171,2057,-341,-918
3047465057,-8659,-12400,-10691,2006,-365,-898
3047485046,-8643,-11474,-9580,1897,-383,-815
3047505035,-8908,-11421,-10242,1877,-286,-764
3047525024,-9097,-12732,-10888,1894,-165,-753
3047545013,-8732,-13122,-10990,1852,-138,-745
3047565002,-7890,-12523,-9464,1820,-164,-715
3047584991,-7491,-12676,-7929,1839,-214,-689
3047604980,-7495,-13749,-7759,1844,-283,-704
3047624969,-7627,-14449,-8801,1822,-328,-747
3047644958,-7450,-15083,-8132,1805,-274,-752
3047664947,-6545,-15371,-6750,1740,-245,-700
3047684936,-6379,-15581,-5960,1630,-341,-643
3047704925,-6651,-15686,-6021,1502,-454,-619
3047724914,-6753,-15893,-6033,1385,-483,-599
3047744903,-6933,-15937,-6169,1288,-448,-549
3047764892,-6893,-16024,-5739,1214,-387,-503
3047784881,-6648,-16059,-5270,1132,-378,-474
3047804870,-6650,-16075,-4792,1046,-387,-451
3047824859,-6611,-16075,-4432,966,-337,-422
3047844848,-6491,-16052,-4042,880,-317,-395
3047864837,-6339,-15986,-3563,799,-241,-351
3047884826,-5989,-15848,-3066,717,-130,-304
3047904815,-6089,-15890,-2818,608,-156,-297
3047924804,-5968,-16017,-3175,502,-99,-276
3047944793,-5587,-16096,-3047,415,-4,-232
3047964782,-5746,-15999,-2839,320,-45,-206
3047984771,-5759,-15923,-2966,242,-65,-195
3048004760,-5713,-15984,-2874,173,-40,-175
3048024749,-5667,-16250,-2594,86,0,-128
3048044738,-5853,-16289,-2774,-30,-24,-80
3048064727,-6076,-16252,-3205,-144,-51,-38
3048084716,-6317,-16195,-3594,-246,-5,26
3048104705,-6306,-16268,-3537,-355,149,129
3048124694,-6490,-16236,-3713,-510,194,205
3048144683,-6727,-16037,-4355,-671,170,240
3048164672,-6978,-15940,-4540,-814,193,283
3048184661,-6878,-15743,-5096,-938,284,346
3048204650,-6726,-15489,-5473,-1029,378,429
3048224639,-6714,-15459,-5772,-1109,430,492
3048244628,-6731,-15594,-6252,-1226,419,517
3048264617,-6712,-15460,-7031,-1386,414,558
3048284606,-7044,-15450,-7419,-1521,470,621
3048304595,-7050,-15585,-7571,-1645,543,668
3048324584,-7095,-15609,-7875,-1770,572,697
3048344573,-7262,-15490,-8469,-1868,595,729
3048364562,-7591,-15412,-8759,-1932,678,764
3048384552,-7583,-15066,-9062,-1987,795,787
3048404541,-7591,-14675,-9371,-2049,823,785
3048424530,-7643,-14330,-9962,-2110,817,778
3048444519,-7659,-13991,-10529,-2145,896,797
3048464508,-7651,-13592,-10295,-2184,951,815
3048484497,-7786,-13276,-11023,-2229,950,815
3048504486,-7287,-12713,-11251,-2262,913,798
3048524475,-7271,-12182,-11552,-2288,819,792
3048544464,-7280,-11393,-11982,-2288,756,789
3048564453,-7217,-10746,-13163,-2267,738,780
3048584442,-6579,-10229,-13152,-2279,697,772
3048604431,-6078,-9137,-12788,-2344,574,788
3048624420,-5752,-8007,-13710,-2394,409,800
3048644409,-6366,-7484,-13636,-2404,247,805
3048664398,-6371,-6494,-13798,-2362,195,815
3048684387,-6384,-5247,-14883,-2296,168,838
3048704376,-6579,-5067,-15238,-2228,226,852
3048724365,-6025,-4321,-14352,-2255,275,846
3048744354,-5436,-2842,-14027,-2328,315,835
3048764343,-5305,-1783,-13692,-2387,262,789
3048784332,-5794,-643,-14401,-2371,271,738
3048804321,-5770,148,-14829,-2251,393,680
3048824310,-5053,433,-13899,-2123,484,617
3048844299,-4269,1223,-12851,-2062,524,590
3048864288,-4047,1683,-13041,-2039,569,588
3048884277,-3930,2158,-13101,-2029,552,572
3048904266,-4419,2993,-13275,-1980,541,566
3048924255,-4130,3873,-12530,-1876,554,545
3048944244,-3750,4870,-11485,-1789,561,522
3048964233,-3442,5752,-11097,-1715,569,501
3048984222,-3102,6566,-11282,-1645,545,470
3049004211,-3429,7227,-11320,-1582,473,423
3049024200,-3005,7969,-10269,-1501,414,364
3049044189,-2574,8666,-9270,-1395,391,334
3049064178,-2281,9221,-8794,-1281,335,302
3049084167,-2470,9746,-8952,-1155,242,255
3049104156,-2571,10129,-8895,-995,186,198
3049124145,-2357,10462,-8844,-824,118,139
3049144134,-2253,10535,-8053,-654,53,96
3049164123,-2076,10545,-7317,-514,-40,60
3049184112,-2230,10578,-7774,-361,-121,24
3049204101,-1855,10492,-7215,-198,-164,-8
3049224090,-2049,10777,-7370,-61,-316,-47
3049244079,-2190,10946,-7826,130,-401,-87
3049264068,-2284,10708,-8102,354,-433,-125
3049284057,-2034,10504,-7485,554,-480,-162
3049304046,-2214,10075,-7389,706,-578,-204
3049324035,-2367,9606,-7460,857,-629,-258
3049344024,-2768,9242,-8595,1001,-681,-298
3049364013,-3618,8772,-9773,1182,-669,-352
3049384002,-3647,8184,-9073,1360,-613,-429
3049403991,-3582,7627,-8732,1465,-629,-504
3049423980,-3788,7202,-9782,1538,-640,-563
3049443969,-4365,6581,-11253,1637,-587,-604
3049463958,-4802,5783,-12270,1732,-579,-663
3049483947,-4851,5186,-11928,1789,-655,-748
3049503936,-4376,5004,-10585,1796,-727,-809
3049523925,-5267,4285,-11780,1806,-728,-842
3049543914,-6256,2768,-13400,1893,-686,-904
3049563903,-6622,1728,-14764,1995,-684,-967
3049583892,-6226,972,-11777,2024,-767,-1010
3049603881,-6052,765,-10252,1978,-820,-1023
3049623870,-7623,-219,-14129,1970,-805,-1062
3049643859,-8659,-2225,-15884,2057,-671,-1125
3049663848,-8010,-2509,-12783,2073,-664,-1139
3049683837,-7954,-2218,-10921,2019,-732,-1123
3049703826,-9099,-3665,-14067,2049,-588,-1147
3049723815,-8990,-5747,-14041,2077,-443,-1179
3049743804,-9995,-5981,-14261,2034,-460,-1180
3049763793,-9322,-5660,-11454,1998,-453,-1189
3049783782,-9357,-6308,-11864,2043,-257,-1180
3049803771,-9382,-8065,-14514,2103,-137,-1217
3049823760,-9225,-9216,-12597,2106,-192,-1245
3049843750,-8642,-8489,-10465,2057,-378,-1241
3049863739,-9445,-9306,-11709,2106,-305,-1225
3049883728,-8409,-11199,-11529,2145,-123,-1197
3049903717,-8588,-12011,-11135,2090,-136,-1090
3049923706,-8417,-11759,-10031,2036,-325,-1000
3049943695,-8895,-12110,-10923,2061,-468,-985
3049963684,-8412,-13429,-9467,2096,-376,-995
3049983673,-8604,-13577,-9219,2003,-406,-963
3050003662,-8074,-13530,-8124,1955,-470,-952
3050023651,-8703,-14072,-9095,1942,-575,-971
3050043640,-8243,-14952,-8232,1948,-532,-998
3050063629,-7993,-15083,-7225,1869,-538,-968
3050083618,-7744,-15199,-5998,1800,-562,-930
3050103607,-7695,-15546,-5990,1730,-623,-912
3050123596,-7773,-16090,-6102,1648,-680,-897
3050143585,-7740,-16244,-6061,1571,-653,-835
3050163574,-7785,-16207,-5701,1520,-512,-738
3050183563,-7445,-16348,-5070,1457,-391,-669
3050203552,-7203,-16654,-4417,1320,-406,-634
3050223541,-7202,-16583,-4272,1153,-405,-582
3050243530,-7158,-16396,-4416,1027,-315,-506
3050263519,-7138,-16162,-4317,911,-231,-434
3050283508,-7191,-16056,-3976,764,-150,-372
3050303497,-7245,-16112,-4056,609,-27,-302
3050323486,-7000,-16212,-3822,481,115,-226
3050343475,-6731,-16186,-3478,356,192,-152
3050363464,-6600,-15999,-3242,236,212,-90
3050383453,-6512,-15796,-3208,123,213,-46
3050403442,-6390,-15651,-3049,24,237,-1
3050423431,-6311,-15508,-3021,-75,260,53
3050443420,-6244,-15674,-2606,-186,264,104
3050463409,-6358,-15749,-2817,-326,217,144
3050483398,-6468,-15793,-3357,-445,220,196
3050503387,-6546,-15805,-3806,-545,279,267
3050523376,-6620,-15720,-3598,-678,323,338
3050543365,-6860,-15636,-4233,-840,317,400
3050563354,-7122,-15787,-5148,-985,335,468
3050583343,-7407,-16042,-6147,-1117,385,546
3050603332,-7561,-16128,-6094,-1262,418,616
3050623321,-7688,-15923,-6478,-1425,400,668
3050643310,-7911,-15859,-7432,-1553,452,725
3050663299,-7940,-15920,-7973,-1660,579,790
3050683288,-8265,-16068,-8236,-1784,676,854
3050703277,-8034,-15830,-8495,-1932,740,899
3050723266,-8255,-15461,-9151,-2078,792,935
3050743255,-8556,-15259,-9710,-2200,824,948
3050763244,-8642,-15103,-10208,-2279,875,960
3050783233,-8368,-14609,-10093,-2317,951,985
3050803222,-8470,-14018,-10846,-2341,1024,998
3050823211,-8410,-13950,-11187,-2372,1107,992
3050843200,-7951,-13556,-11383,-2450,1088,993
3050863189,-8126,-12604,-11780,-2526,1031,1018
3050883178,-7807,-11400,-11486,-2561,1006,1029
3050903167,-8295,-10635,-12668,-2544,944,1010
3050923156,-8090,-10212,-12733,-2485,929,982
3050943145,-7444,-9211,-12783,-2429,961,981
3050963134,-6973,-8116,-12319,-2424,950,974
3050983123,-6373,-6861,-12552,-2470,765,923
3051003112,-6819,-5782,-14138,-2492,601,870
3051023101,-6736,-5325,-14582,-2436,666,826
3051043090,-6349,-5073,-15315,-2413,631,770
3051063079,-5408,-4050,-14423,-2425,577,756
3051083068,-5441,-2870,-14161,-2464,575,792
3051103057,-4862,-1900,-13625,-2487,628,809
3051123046,-5086,-824,-14863,-2498,612,811
3051143035,-4738,-43,-13745,-2445,551,777
3051163024,-4174,1217,-12730,-2358,542,756
3051183013,-3735,1844,-11719,-2251,556,721
3051203002,-3054,2664,-10979,-2181,483,650
3051222991,-3119,3851,-10988,-2102,358,588
3051242980,-3075,4612,-10400,-1959,268,533
3051262969,-2793,5186,-10108,-1776,218,490
3051282958,-2533,5936,-9748,-1608,116,443
3051302947,-2607,6726,-10171,-1437,38,416
3051322937,-2389,7076,-9429,-1267,7,402
3051342926,-2458,8006,-9744,-1170,-68,394
3051362915,-2646,8658,-10022,-1054,-62,402
3051382904,-2690,9392,-9769,-941,-52,404
3051402893,-2673,10100,-9721,-839,-76,399
3051422882,-2687,10622,-9749,-723,-75,380
3051442871,-2768,11082,-9156,-604,-88,333
3051462860,-2593,11223,-8127,-467,-97,270
3051482849,-2274,11164,-7390,-316,-121,192
3051502838,-2177,11071,-6968,-149,-198,93
3051522827,-2145,10770,-6893,75,-260,2
3051542816,-1983,10308,-7411,325,-328,-88
3051562805,-1622,10008,-6961,554,-439,-187
3051582794,-1266,9879,-6677,727,-590,-279
3051602783,-1360,9524,-7294,922,-735,-355
3051622772,-2024,8780,-7991,1156,-857,-444
3051642761,-2399,8237,-8590,1365,-897,-555
3051662750,-2709,7577,-8726,1545,-943,-669
3051682739,-3691,6643,-9329,1678,-1015,-790
3051702728,-4505,5650,-9910,1796,-943,-909
3051722717,-5086,4615,-10551,1889,-831,-1025
3051742706,-5603,3721,-11111,1944,-857,-1145
3051762695,-6443,2850,-11849,1984,-904,-1247
3051782684,-7102,1903,-12827,2036,-739,-1305
3051802673,-6944,944,-12263,2072,-512,-1311
3051822662,-6575,484,-12028,2018,-631,-1303
3051842651,-8089,331,-13889,1992,-882,-1313
3051862640,-9098,-604,-15590,2174,-549,-1295
3051882629,-7808,-2122,-13049,2306,-232,-1220
3051902618,-7666,-2639,-10572,2180,-452,-1161
3051922607,-9018,-3052,-12058,2108,-534,-1130
3051942596,-10280,-4734,-14292,2232,-138,-1095
3051962585,-9576,-6785,-14092,2312,115,-1075
3051982574,-8754,-7097,-10885,2186,-178,-1069
3052002563,-9369,-6308,-11824,2082,-278,-1045
3052022552,-9822,-7584,-12648,2103,-88,-1053
3052042541,-9692,-9118,-13597,2101,31,-1078
3052062530,-9481,-9531,-12432,2032,-214,-1100
3052082519,-8574,-9008,-10386,1964,-442,-1094
3052102508,-9165,-9405,-11407,2000,-452,-1068
3052122497,-9404,-11418,-11760,2055,-333,-1089
3052142486,-8831,-12149,-10745,2000,-409,-1100
3052162475,-8292,-11723,-9988,1950,-523,-1069
3052182464,-8566,-12336,-10567,1994,-525,-1046
3052202453,-7927,-13775,-9336,2014,-470,-1045
3052222442,-7652,-13967,-9063,1910,-562,-1050
3052242431,-7698,-13667,-8155,1805,-725,-1072
3052262420,-8251,-14195,-8356,1812,-754,-1109
3052282409,-8048,-15309,-8495,1853,-596,-1108
3052302398,-7428,-15920,-7369,1842,-410,-1012
3052322387,-7231,-15910,-5767,1780,-299,-876
3052342376,-6997,-15967,-5282,1666,-325,-791
3052362365,-7547,-16294,-5738,1552,-417,-765
3052382354,-7921,-16486,-6662,1496,-339,-730
3052402343,-7624,-16628,-5321,1475,-142,-661
3052422332,-7398,-16376,-4407,1403,-122,-617
3052442321,-6938,-16539,-3861,1317,-146,-590
3052462310,-6954,-16801,-3745,1220,-132,-539
3052482299,-6913,-16717,-3659,1121,-108,-485
3052502288,-6656,-16322,-3564,1025,-101,-443
3052522277,-6285,-16039,-3165,926,-113,-408
3052542266,-6143,-15891,-2891,823,-114,-359
3052562255,-6141,-15806,-2874,728,-93,-295
3052582244,-6171,-15841,-2791,627,-88,-246
3052602233,-6029,-15915,-2925,515,-91,-204
3052622222,-6003,-15930,-2608,399,-33,-146
3052642211,-6011,-16005,-2289,274,13,-89
3052662200,-5976,-16276,-2324,129,45,-22
3052682189,-6022,-16317,-2427,-27,42,34
3052702178,-6252,-16169,-3171,-168,36,84
3052722167,-6364,-16079,-3553,-275,105,146
3052742156,-6251,-16007,-3667,-379,180,206
3052762145,-6086,-16032,-3440,-509,184,255
3052782135,-6130,-16046,-3620,-648,135,305
3052802124,-6296,-15927,-4144,-769,134,372
3052822113,-6431,-15977,-4083,-892,260,465
3052842102,-6875,-16057,-4665,-1063,308,538
3052862091,-7257,-16243,-5334,-1234,335,578
3052882080,-7541,-16524,-5943,-1398,450,624
3052902069,-7419,-16676,-6061,-1574,598,676
3052922058,-7506,-16725,-6513,-1748,631,720
3052942047,-8304,-16919,-7719,-1901,622,746
3052962036,-8080,-17080,-8174,-2050,664,794
3052982025,-7536,-15741,-8439,-2166,699,923
3053002014,-8176,-14474,-8801,-2250,744,1030
3053022003,-8644,-14376,-9429,-2351,725,1033
3053041992,-8279,-14511,-9554,-2438,668,1036
3053061981,-8491,-14277,-9914,-2458,605,1066
3053081970,-8766,-13961,-9909,-2439,596,1070
3053101959,-8721,-13951,-10486,-2435,599,1036
3053121948,-8790,-13854,-11456,-2458,606,1007
3053141937,-8369,-13128,-11369,-2491,593,1006
3053161926,-8397,-12241,-12129,-2525,612,1023
3053181915,-8042,-11581,-12166,-2567,672,1017
3053201904,-8078,-10416,-13078,-2647,596,1011
3053221893,-8467,-9688,-13931,-2668,525,1008
3053241882,-8222,-8515,-13707,-2636,486,1001
3053261871,-7485,-6815,-13270,-2550,604,1015
3053281860,-7209,-5869,-13260,-2491,792,1028
3053301849,-6906,-5386,-13655,-2504,857,986
3053321838,-6637,-4618,-14246,-2571,785,939
3053341827,-6405,-3652,-13629,-2616,708,901
3053361816,-6258,-2520,-13595,-2600,716,890
3053381805,-5920,-1840,-13208,-2532,779,893
3053401794,-6201,-1029,-13983,-2475,815,903
3053421783,-5306,-198,-12457,-2404,853,890
3053441772,-5015,1402,-12029,-2403,742,888
3053461761,-4310,2806,-10577,-2351,690,883
3053481750,-4656,3858,-11290,-2265,667,874
3053501739,-4430,4513,-10662,-2125,625,818
3053521728,-3865,5583,-9807,-1977,553,792
3053541717,-3562,6570,-9990,-1826,446,768
3053561706,-3292,6930,-10007,-1644,389,726
3053581695,-2598,7316,-9518,-1490,330,692
3053601684,-2368,8086,-9615,-1388,183,651
3053621673,-2086,8741,-9532,-1261,116,624
3053641662,-1708,9398,-8675,-1140,64,606
3053661651,-2218,9915,-9495,-999,-2,580
3053681640,-1696,10280,-8853,-816,-37,524
3053701629,-1365,10818,-8522,-670,-135,450
3053721618,-888,11287,-7570,-515,-217,366
3053741607,-801,11499,-7468,-371,-255,281
3053761596,-810,11441,-7542,-208,-273,178
3053781585,-638,11257,-7164,-42,-321,78
3053801574,-689,11217,-6982,102,-403,-29
3053821563,-892,10925,-7596,279,-402,-129
3053841552,-1090,10509,-7540,458,-373,-219
3053861541,-1285,10197,-7903,601,-406,-318
3053881530,-1540,9861,-8265,753,-436,-418
3053901519,-1852,9520,-8438,898,-455,-517
3053921508,-2515,9210,-9475,1040,-438,-604
3053941497,-2620,8617,-9637,1173,-400,-699
3053961486,-2978,8240,-9710,1236,-454,-801
3053981475,-3063,7987,-8957,1299,-444,-886
3054001464,-3320,7514,-9750,1377,-423,-953
3054021453,-3962,6742,-10585,1497,-470,-1020
3054041442,-4554,6101,-10397,1646,-524,-1083
3054061431,-5133,5259,-11516,1800,-523,-1139
3054081420,-4747,4181,-10260,1936,-548,-1186
3054101409,-5510,3219,-10674,2009,-631,-1198
3054121398,-6767,1955,-12581,2106,-699,-1224
3054141387,-6678,379,-12271,2209,-700,-1234
3054161376,-7356,-427,-12724,2217,-681,-1172
3054181365,-7712,-1275,-13310,2214,-600,-1110
3054201354,-8118,-2795,-13742,2198,-536,-1064
3054221343,-8485,-3404,-13445,2115,-529,-1034
3054241333,-8988,-3243,-14366,2042,-462,-1003
3054261322,-9165,-3479,-13794,2044,-368,-996
3054281311,-9201,-3944,-13338,2087,-261,-1007
3054301300,-9169,-4397,-13576,2138,-246,-1056
3054321289,-9607,-5983,-15031,2235,-206,-1125
3054341278,-8354,-7227,-11880,2270,-268,-1184
3054361267,-7972,-7076,-11062,2209,-368,-1165
3054381256,-8759,-8043,-13523,2245,-296,-1142
3054401245,-8277,-10499,-13336,2313,-172,-1131
3054421234,-7882,-11124,-11198,2191,-340,-1057
3054441223,-7222,-10019,-9457,2044,-544,-980
3054461212,-8553,-10410,-11984,2050,-597,-937
3054481201,-8350,-12673,-11109,2154,-329,-945
3054501190,-8416,-13449,-10740,2053,-383,-935
3054521179,-8199,-12703,-9475,1962,-575,-937
3054541168,-8363,-12916,-9074,1985,-589,-942
3054561157,-8815,-14495,-9719,2011,-553,-957
3054581146,-8429,-15587,-8606,1970,-523,-950
3054601135,-8735,-15348,-8141,1937,-465,-888
3054621124,-8356,-15242,-7140,1928,-435,-859
3054641113,-8518,-15826,-7752,1899,-466,-836
3054661102,-7999,-16475,-6991,1841,-402,-792
3054681091,-8251,-16452,-6497,1722,-409,-740
3054701080,-7990,-16257,-5767,1634,-423,-714
3054721069,-7709,-16231,-5230,1556,-406,-670
3054741058,-7600,-16174,-5373,1458,-426,-644
3054761047,-7563,-16074,-5105,1350,-454,-629
3054781036,-7646,-16045,-4651,1251,-420,-597
3054801025,-7139,-16067,-3990,1151,-369,-545
3054821014,-7171,-16193,-3830,1011,-381,-479
3054841003,-7465,-16118,-3815,863,-334,-410
3054860992,-7107,-15869,-3469,722,-243,-342
3054880981,-7188,-15701,-3528,571,-215,-280
3054900970,-7031,-15455,-3897,433,-189,-226
3054920959,-7008,-15475,-3621,311,-100,-150
3054940948,-7165,-15527,-3661,164,-11,-72
3054960937,-6916,-15412,-3819,3,45,-9
3054980926,-6609,-15509,-3795,-154,92,62
3055000915,-6522,-15591,-3747,-302,135,137
3055020904,-6429,-15587,-3732,-444,173,212
3055040893,-6476,-15698,-3905,-581,236,298
3055060882,-6699,-15780,-4290,-731,277,370
3055080871,-6968,-15872,-5154,-883,299,420
3055100860,-7195,-16053,-5436,-1019,394,486
3055120849,-7090,-16065,-5120,-1209,501,580
3055140838,-7306,-16218,-5979,-1482,498,697
3055160827,-8057,-16407,-7178,-1725,486,822
3055180816,-9434,-16538,-7725,-1902,571,936
3055200805,-9873,-16240,-8550,-2008,671,981
3055220794,-9053,-15686,-8756,-2067,700,975
3055240783,-8903,-15386,-7849,-2117,689,992
3055260772,-8700,-15163,-7423,-2165,693,1044
3055280761,-8889,-15043,-7913,-2243,629,1099
3055300750,-9378,-14983,-9799,-2298,624,1136
3055320739,-9582,-14812,-10591,-2351,648,1138
3055340728,-9330,-14422,-11052,-2420,651,1139
3055360717,-9108,-13912,-10957,-2509,591,1157
3055380706,-9035,-13021,-11027,-2588,563,1210
3055400695,-9383,-11942,-12562,-2633,574,1254
3055420684,-9323,-11367,-13484,-2624,598,1261
3055440673,-9086,-10409,-13854,-2628,579,1256
3055460662,-8520,-9126,-12984,-2637,624,1260
3055480651,-8017,-8209,-12702,-2674,629,1267
3055500640,-8308,-7727,-13321,-2720,574,1243
3055520629,-8121,-6735,-13397,-2722,540,1198
3055540618,-7842,-5613,-13172,-2666,527,1172
3055560607,-7859,-4766,-13262,-2603,506,1131
3055580596,-7525,-4041,-12819,-2526,622,1081
3055600585,-6737,-2930,-12223,-2518,638,1028
3055620574,-6232,-1660,-12375,-2538,556,994
3055640563,-6441,-688,-11993,-2501,533,980
3055660552,-6535,148,-12282,-2408,549,940
3055680541,-5847,1366,-11048,-2299,502,889
3055700531,-5695,2638,-10803,-2182,449,880
3055720520,-5292,3407,-10477,-2039,467,873
3055740509,-5200,4058,-10363,-1902,490,854
3055760498,-4934,5059,-10107,-1788,460,800
3055780487,-4710,6148,-9994,-1678,343,733
3055800476,-4474,6965,-9767,-1540,285,676
3055820465,-4011,7769,-9606,-1391,295,631
3055840454,-3713,8445,-9771,-1260,302,595
3055860443,-3528,9221,-10132,-1170,219,551
3055880432,-3335,9846,-9652,-1093,175,510
3055900421,-3145,10353,-9385,-1033,161,480
3055920410,-3002,10848,-9282,-985,170,458
3055940399,-3151,10918,-9292,-929,200,446
3055960388,-3161,11015,-8764,-850,190,407
3055980377,-3035,11201,-8228,-770,179,347
3056000366,-2779,11303,-7894,-692,186,285
3056020355,-2956,11277,-7926,-609,199,226
3056040344,-2903,11398,-7820,-490,213,152
3056060333,-2675,11487,-7237,-356,186,66
3056080322,-2336,11477,-6811,-214,102,-14
3056100311,-2239,11569,-6279,-60,-18,-94
3056120300,-2211,11691,-6419,97,-145,-163
3056140289,-2452,11548,-6819,309,-210,-213
3056160278,-2552,11281,-6714,543,-270,-270
3056180267,-2739,10998,-7197,745,-388,-326
3056200256,-2979,10518,-7510,919,-447,-363
3056220245,-3333,9969,-7968,1066,-435,-391
3056240234,-3654,9590,-8094,1163,-442,-424
3056260223,-4285,9151,-9076,1249,-440,-461
3056280212,-4527,8750,-9488,1352,-407,-508
3056300201,-4753,8344,-9913,1453,-356,-539
3056320190,-5037,7913,-10709,1536,-317,-580
3056340179,-5249,7338,-11548,1616,-301,-633
3056360168,-5319,6906,-11361,1653,-311,-669
3056380157,-5133,6689,-11308,1668,-280,-677
3056400146,-5466,6165,-11965,1711,-222,-655
3056420135,-5772,5344,-12026,1770,-254,-659
3056440124,-6130,4754,-12904,1819,-356,-688
3056460113,-6205,4082,-13214,1871,-375,-718
3056480102,-6131,3114,-12151,1902,-361,-737
3056500091,-6749,2142,-13304,1895,-448,-772
3056520080,-7302,687,-15006,1936,-485,-830
3056540069,-7053,114,-13514,1924,-493,-845
3056560058,-7283,79,-12541,1853,-520,-819
3056580047,-7253,-554,-12868,1820,-543,-830
3056600036,-8051,-1537,-14495,1841,-539,-852
3056620025,-8667,-2661,-15697,1919,-462,-907
3056640014,-8141,-3107,-13584,1917,-481,-952
3056660003,-7742,-3124,-12290,1836,-538,-955
3056679992,-8171,-3907,-13165,1786,-541,-952
3056699981,-9176,-5366,-14824,1813,-460,-975
3056719970,-9127,-6161,-15555,1863,-361,-1019
3056739959,-8193,-6151,-13248,1838,-344,-1001
3056759948,-8180,-6134,-11454,1715,-437,-957
3056779937,-8657,-6717,-11768,1636,-509,-973
3056799926,-10043,-8385,-14966,1710,-445,-1020
3056819915,-8953,-9159,-12835,1832,-242,-1012
3056839904,-8395,-8643,-10361,1833,-238,-914
3056859893,-8049,-8597,-9573,1811,-373,-874
3056879882,-8679,-9896,-12832,1855,-424,-911
3056899871,-8484,-11542,-11231,1909,-301,-957
3056919860,-8387,-11266,-10768,1849,-379,-986
3056939849,-7617,-10942,-8222,1821,-561,-1032
3056959838,-7735,-12144,-7470,1804,-697,-1082
3056979827,-8339,-14137,-8548,1831,-647,-1118
3056999816,-7898,-15025,-7600,1836,-539,-1078
3057019805,-7944,-14586,-7058,1793,-486,-978
3057039794,-7356,-14340,-6272,1766,-484,-916
3057059783,-7997,-14946,-6935,1702,-592,-919
3057079772,-8321,-15629,-7763,1664,-527,-935
3057099761,-7681,-15653,-6269,1573,-388,-884
3057119750,-7625,-15330,-6075,1438,-392,-796
3057139739,-7900,-15600,-5898,1352,-375,-722
3057159729,-7976,-15933,-6030,1265,-262,-645
3057179718,-8086,-15772,-6234,1146,-209,-587
3057199707,-8026,-15646,-6227,1037,-128,-522
3057219696,-7812,-15659,-5718,943,-10,-450
3057239685,-7212,-15559,-4759,805,11,-386
3057259674,-7156,-15400,-4233,630,12,-314
3057279663,-7067,-15284,-4187,477,37,-251
3057299652,-6916,-15130,-4237,358,48,-199
3057319641,-6866,-14804,-4007,276,59,-152
3057339630,-6764,-14307,-3835,211,60,-142
3057359619,-6122,-13925,-2684,151,45,-157
3057379608,-5764,-13734,-1971,92,-21,-168
3057399597,-4928,-13782,-1395,55,-79,-171
3057419586,-5197,-13955,-1364,33,-161,-177
3057439575,-5340,-13847,-1575,56,-158,-213
3057459564,-3796,-13576,-1313,105,-170,-250
3057479553,-3831,-13588,-1101,158,-280,-238
3057499542,-4015,-13357,-962,229,-292,-230
3057519531,-4039,-13731,-1293,307,-307,-253
3057539520,-3560,-14292,-1113,321,-554,-328
3057559509,-2984,-14624,-689,323,-732,-339
3057579498,-3903,-15253,-195,309,-630,-280
3057599487,-3966,-15743,70,259,-405,-259
3057619476,-4098,-16454,-224,194,-370,-281
3057639465,-4266,-16968,-498,133,-458,-344
3057659454,-3847,-17205,-119,110,-445,-405
3057679443,-3512,-17495,382,108,-353,-392
3057699432,-3379,-17118,-163,113,-387,-412
3057719421,-3855,-17104,-543,150,-393,-433
3057739410,-4276,-17141,-886,143,-318,-469
3057759399,-2830,-17030,1110,111,-119,-492
3057779388,-2972,-16894,716,50,-90,-451
3057799377,-3346,-16133,-1071,15,-123,-459
3057819366,-3279,-16301,-986,36,-175,-514
3057839355,-1315,-17025,44,86,-207,-529
3057859344,-1047,-17378,1388,131,-233,-412
3057879333,-2492,-17630,906,110,-322,-333
3057899322,-3054,-18043,-69,69,-323,-328
3057919311,-2718,-18477,-94,43,-140,-316
3057939300,-835,-19111,442,31,-46,-263
3057959289,34,-20945,377,16,-175,-16
3057979278,-4657,-16761,868,-4,-45,92
3057999267,-3959,-17143,472,-14,1,9
3058019256,-2373,-17491,205,-5,-87,-55
3058039245,-3500,-19846,-1289,-69,-95,-106
3058059234,-663,-16624,-288,-176,270,-183
3058079223,-2223,-15193,2619,-8,439,-162
3058099212,-1329,-15990,340,105,418,-72
3058119201,-1624,-19839,-2149,18,48,-68
3058139190,-1257,-17429,-378,-114,-631,-31
3058159179,-4079,-17536,1090,-75,-621,-137
3058179168,-2741,-17757,226,-20,-490,-137
3058199157,-3518,-17545,793,-19,-596,-148
3058219146,-2925,-18766,1297,133,-1281,-184
3058239135,-2454,-18657,133,196,-1867,-66
3058259124,135,-17822,3097,345,-2677,-106
3058279113,-1601,-17862,2696,575,-3964,-216
3058299102,-4511,-18428,2757,696,-4188,-171
3058319091,-3223,-18880,3855,682,-3482,-84
3058339080,-748,-18259,4026,658,-2955,-55
3058359069,-1892,-18689,3832,803,-2397,-36
3058379058,-2957,-18907,3134,781,-1494,-9
3058399047,-1537,-18724,3922,703,-636,13
3058419036,-861,-19195,4083,613,-301,199
3058439025,-938,-19876,3880,491,-484,401
3058459014,-1403,-20043,3305,423,-961,566
3058479003,-984,-19960,2479,455,-1702,686
3058498992,-1103,-19820,3005,552,-2749,778
3058518981,-2411,-19876,3628,664,-3747,929
3058538970,-2898,-19909,4203,755,-4396,1096
3058558959,-2207,-19327,5324,817,-4694,1273
3058578948,-2711,-18854,5904,878,-4617,1466
3058598937,-4441,-18904,6199,816,-4308,1584
3058618927,-5582,-18745,6113,718,-3842,1662
3058638916,-5197,-18571,5340,751,-3322,1762
3058658905,-4018,-18222,4484,825,-2851,1875
3058678894,-2883,-18015,3931,956,-2377,1951
3058698883,-2494,-17616,3824,1148,-1813,1951
3058718872,-2619,-16869,5279,1315,-1248,1863
3058738861,-2854,-16622,6338,1476,-819,1732
3058758850,-3279,-16166,6303,1678,-453,1569
3058778839,-3524,-15258,6026,1899,-70,1396
3058798828,-3604,-14293,5750,2098,268,1240
3058818817,-4253,-13639,5724,2243,581,1102
3058838806,-4810,-13047,6148,2318,851,993
3058858795,-5118,-12062,6358,2338,1101,909
3058878784,-5183,-10651,6147,2304,1285,854
3058898773,-5455,-9433,6973,2197,1253,819
3058918762,-5550,-9204,9794,2044,743,789
3058938751,-5584,-9157,12136,1907,-518,742
3058958740,-7093,-9078,12999,1916,-1503,613
3058978729,-8065,-8439,11864,1932,-1833,468
3058998718,-7991,-7138,9956,1875,-1697,371
3059018707,-7290,-5715,8527,1790,-1306,296
3059038696,-6312,-5010,8494,1736,-939,246
3059058685,-5392,-4066,8791,1703,-691,221
3059078674,-5602,-3172,9165,1665,-258,207
3059098663,-4904,-2502,9510,1636,89,141
3059118652,-4142,-1698,9532,1606,136,42
3059138641,-4655,-951,9623,1573,200,-71
3059158630,-4676,12,9848,1506,536,-229
3059178619,-3766,1031,9742,1403,914,-417
3059198608,-4382,1605,9750,1307,1277,-614
3059218597,-5198,2176,9936,1210,1479,-810
3059238586,-5850,2931,9924,1114,1504,-999
3059258575,-6311,3411,10027,1005,1523,-1148
3059278564,-6290,3879,10816,884,1508,-1218
3059298553,-6442,4554,11874,737,1425,-1224
3059318542,-6955,4892,13329,540,1420,-1210
3059338531,-8143,4608,15012,336,1367,-1163
3059358520,-10605,3528,17283,209,1069,-1042
3059378509,-10827,3486,17640,126,435,-823
3059398498,-10547,3564,16677,13,3,-517
3059418487,-10622,3249,16161,-102,162,-188
3059438476,-10333,2630,16206,-228,630,48
3059458465,-9623,2161,15681,-306,959,169
3059478454,-9700,1618,15115,-301,1126,192
3059498443,-10525,805,15293,-256,1061,160
3059518432,-10680,70,15555,-186,605,125
3059538421,-10897,-460,14553,-99,144,91
3059558410,-11869,-738,12088,-44,98,29
3059578399,-12447,-1057,10494,-53,371,-79
3059598388,-11898,-1533,9894,-85,678,-180
3059618377,-10651,-2676,9397,-134,763,-221
3059638366,-11572,-4889,10265,-232,602,-240
3059658355,-12476,-4184,12787,-432,365,-193
3059678344,-11025,-3110,14709,-647,157,5
3059698333,-11182,-2669,14509,-714,86,202
3059718322,-11477,-2270,13800,-698,96,296
3059738311,-11544,-1604,13367,-618,1,326
3059758300,-12035,-1159,13289,-477,-108,297
3059778289,-11822,-1129,12782,-338,-214,202
3059798278,-10948,-1543,12769,-223,-320,110
3059818267,-10374,-1788,13329,-128,-408,82
3059838256,-10172,-1956,13805,-98,-374,71
3059858245,-9908,-1944,13863,-105,-259,60
3059878234,-9883,-1826,13751,-110,-135,36
3059898223,-10143,-1812,13440,-88,-40,-10
