Timestamp(us), ax, ay, az, gx, gy, gz, mx, my, mz,period
3143704273,553,-876,-15958,-9,5,-2,130,301,-1778,
3143724262,586,-888,-15942,-4,6,-1,118,296,-1778,
3143744251,568,-873,-15951,-10,5,-3,124,319,-1778,
3143764240,557,-856,-15952,-6,5,-2,118,290,-1778,
3143784229,578,-877,-15980,5,7,0,130,313,-1778,
3143804218,582,-884,-15957,8,9,-2,118,296,-1803,
3143824207,543,-884,-15985,12,9,-5,112,319,-1778,
3143844196,562,-860,-15999,25,10,-4,130,301,-1778,
3143864185,572,-878,-15960,33,12,-1,112,313,-1790,
3143884174,575,-919,-15915,30,13,-2,118,301,-1790,
3143904163,561,-885,-15904,-1,7,-4,118,296,-1767,
3143924152,585,-843,-15951,-34,4,-6,118,313,-1778,
3143944141,567,-866,-16016,-25,3,-4,118,290,-1778,
3143964131,561,-872,-15961,-4,6,-1,130,296,-1778,
3143984120,560,-868,-15926,-14,3,-1,118,319,-1778,
3144004109,559,-886,-15957,-26,-1,5,124,313,-1790,
3144024098,572,-838,-15973,-9,2,7,130,319,-1790,
3144044087,549,-822,-15977,6,7,1,118,301,-1790,
3144064076,550,-851,-15945,17,9,-5,124,313,-1755,
3144084065,578,-877,-15965,29,10,-3,112,301,-1742,
3144104054,560,-876,-15965,30,12,-1,118,313,-1767,
3144124043,549,-888,-15947,20,11,-2,118,296,-1767,
3144144032,570,-887,-15958,12,9,-3,118,307,-1803,
3144164021,572,-880,-15926,0,9,-4,124,290,-1792,
3144184010,540,-879,-15948,1,8,-4,130,331,-1755,
3144203999,551,-878,-15935,5,7,-4,118,307,-1767,
3144223988,582,-863,-15937,-2,8,-5,112,301,-1767,
3144243977,564,-872,-15921,-20,3,-5,118,313,-1778,
3144263966,537,-827,-16025,-10,4,-4,118,319,-1767,
3144283955,555,-872,-16002,30,10,-2,130,313,-1778,
3144303944,577,-879,-15931,48,13,-3,112,296,-1778,
3144323933,389,-365,-15721,39,20,-2,130,313,-1790,
3144343922,301,-951,-16215,-147,-10,-26,106,313,-1730,
3144363911,-681,-303,-15983,-6,3,-318,130,301,-1767,
3144383900,1096,-885,-15910,5,-32,-745,112,307,-1792,
3144403889,1860,-1608,-15696,-38,-44,-437,112,307,-1815,
3144423878,316,-926,-16202,-82,-14,81,136,296,-1767,
3144443867,279,-725,-16177,60,24,55,124,301,-1755,
3144463856,678,-854,-15754,102,38,-9,130,313,-1742,
3144483845,-821,-1402,-13134,75,-131,-21,142,307,-1755,
3144503834,-1638,-2202,-12648,236,-1637,26,136,296,-1803,
3144523823,1211,-884,-17356,926,-610,-406,130,301,-1826,
3144543812,464,-1081,-14880,1152,242,-108,153,301,-1826,
3144563801,-64,-1267,-15185,262,-12,-23,159,296,-1767,
3144583790,64,-1294,-15635,-340,-9,-14,148,284,-1826,
3144603779,-221,-1318,-16286,-534,6,-35,130,278,-1838,
3144623768,-326,-1427,-16542,-174,-1,-18,153,296,-1790,
3144643757,14,-982,-16117,282,5,-5,153,290,-1755,
3144663746,-103,-1480,-15643,347,11,-25,159,296,-1778,
3144683735,-243,-1718,-15518,83,9,-2,148,284,-1826,
3144703724,-226,-1519,-15936,-180,6,-2,148,290,-1815,
3144723713,-178,-1434,-16110,-144,6,-4,153,307,-1815,
3144743702,-161,-1469,-16081,30,8,-5,142,284,-1778,
3144763691,-230,-1574,-15834,138,10,-4,153,290,-1803,
3144783680,-221,-1565,-15802,63,8,-5,165,296,-1826,
3144803669,-165,-1543,-15854,-56,7,-4,153,301,-1803,
3144823658,-185,-1514,-16041,-79,7,-4,148,278,-1826,
3144843647,-217,-1489,-16026,24,8,-4,148,296,-1838,
3144863636,-215,-1526,-15859,80,8,-5,165,313,-1815,
3144883625,-185,-1584,-15811,22,8,-5,153,284,-1790,
3144903614,-171,-1542,-15926,-45,6,-3,165,301,-1826,
3144923603,-233,-1499,-16006,-22,8,-5,153,290,-1792,
3144943592,-196,-1511,-15935,36,8,-5,177,296,-1803,
3144963581,-164,-1569,-15845,39,9,-4,153,296,-1790,
3144983570,-197,-1552,-15898,-4,8,-5,159,307,-1815,
3145003559,-210,-1527,-15952,-25,8,-4,159,284,-1803,
3145023548,-219,-1529,-15944,2,7,-4,153,296,-1790,
3145043537,-181,-1539,-15889,34,8,-4,159,284,-1792,
3145063526,-186,-1519,-15896,16,8,-4,148,296,-1826,
3145083515,-207,-1556,-15926,-16,7,-4,153,284,-1851,
3145103504,-202,-1554,-15944,-8,7,-4,159,278,-1792,
3145123493,-184,-1506,-15924,20,8,-5,148,296,-1815,
3145143482,-180,-1548,-15896,21,8,-5,159,296,-1826,
3145163471,-207,-1550,-15939,-4,8,-3,159,278,-1767,
3145183460,-214,-1551,-15938,-5,8,-4,165,296,-1815,
3145203449,-198,-1508,-15948,7,8,-4,159,284,-1815,
3145223438,-179,-1534,-15922,17,8,-3,159,284,-1815,
3145243427,-1600,-2585,-15775,-18,3,-63,153,284,-1828,
3145263416,-1021,-2404,-15930,-27,-19,-236,159,296,-1792,
3145283405,1206,-837,-15685,29,16,-99,148,290,-1815,
3145303394,744,-194,-16025,-165,-27,-114,159,290,-1826,
3145323383,-319,-1379,-16199,-135,1,-12,159,301,-1755,
3145343372,-258,-1505,-16004,65,13,6,142,290,-1851,
3145363361,103,-1541,-15838,60,10,10,171,284,-1778,
3145383350,936,-1391,-15536,-41,28,186,165,290,-1826,
3145403339,-667,-1333,-15734,-345,28,209,148,290,-1803,
3145423329,-1295,-1294,-16403,-442,10,80,159,296,-1790,
3145443318,-210,-1176,-16817,10,6,-35,159,301,-1803,
3145463307,-66,-1195,-16219,719,1,-122,159,307,-1778,
3145483296,-155,-1605,-15322,814,11,-42,159,301,-1851,
3145503285,-195,-1963,-15098,265,13,5,165,266,-1803,
3145523274,-191,-1761,-15650,-341,3,-7,171,284,-1840,
3145543263,-186,-1419,-16292,-462,1,-15,153,296,-1815,
3145563252,-223,-1378,-16425,-131,7,-4,159,290,-1815,
3145583241,-196,-1509,-16021,257,11,-4,177,296,-1815,
3145603230,-176,-1675,-15626,291,12,-6,165,301,-1767,
3145623219,-197,-1693,-15626,34,8,-4,159,284,-1815,
3145643208,-187,-1606,-15942,-187,6,-4,165,284,-1755,
3145663197,-208,-1503,-16156,-131,7,-4,171,278,-1815,
3145683186,-209,-1513,-16060,63,9,-5,159,290,-1778,
3145703175,-176,-1617,-15799,140,9,-4,159,296,-1803,
3145723164,-191,-1646,-15755,37,8,-5,159,290,-1792,
3145743153,-204,-1591,-15880,-77,7,-4,165,296,-1840,
3145763142,-202,-1558,-16061,-59,8,-4,148,296,-1803,
3145783131,-210,-1554,-15978,43,8,-5,171,296,-1838,
3145803120,-201,-1615,-15864,69,8,-5,159,296,-1826,
3145823109,-212,-1636,-15811,5,8,-5,159,290,-1815,
3145843098,-211,-1592,-15948,-48,7,-5,165,278,-1790,
3145863087,-191,-1543,-16005,-20,8,-5,153,284,-1851,
3145883076,-2552,-2510,-16097,58,2,-58,153,290,-1815,
3145903065,-1880,-2595,-15732,220,-29,-306,171,272,-1792,
3145923054,1947,-1676,-15582,71,-16,-395,159,284,-1828,
3145943043,942,-992,-15830,-168,-19,-215,153,284,-1840,
3145963032,1693,-65,-16563,-139,-4,16,153,266,-1840,
3145983021,690,-1361,-15826,129,49,284,171,278,-1803,
3146003010,-1506,-2347,-15785,68,48,288,159,284,-1826,
3146022999,-215,-1657,-15924,37,34,209,153,278,-1840,
3146042988,-149,-1813,-15906,52,42,239,153,284,-1790,
3146062977,-203,-2239,-15911,67,37,313,153,284,-1803,
3146082966,-390,-2313,-15996,151,27,240,159,284,-1815,
3146102955,-71,-1229,-15859,199,49,139,159,278,-1803,
3146122944,-474,-1736,-15889,122,59,206,159,284,-1826,
3146142933,-205,-1888,-15857,127,49,170,148,278,-1826,
3146162922,-32,-1612,-15872,135,30,203,142,266,-1826,
3146182911,-554,-1863,-15860,85,31,223,153,272,-1815,
3146202900,-368,-1963,-15954,66,-25,179,142,272,-1803,
3146222889,-209,-1877,-15948,10,-125,154,142,260,-1780,
3146242878,1,-1866,-16289,-90,-194,188,148,278,-1815,
3146262867,-34,-1651,-16203,-321,-186,171,142,272,-1826,
3146282856,102,-1815,-15822,-509,-216,220,142,260,-1803,
3146302845,-156,-1820,-15764,-448,-398,227,148,278,-1778,
3146322834,-2419,-1682,-16530,-298,-86,184,153,272,-1792,
3146342823,-1732,-1330,-15966,206,354,132,142,296,-1828,
3146362812,-324,-1100,-16776,228,412,89,148,272,-1826,
3146382801,-512,-1080,-16138,-4,660,99,153,278,-1792,
3146402790,-532,-1158,-15897,-151,648,-20,130,278,-1826,
3146422779,508,-1441,-15897,-84,712,-184,142,278,-1792,
3146442768,907,-1341,-15381,-16,793,-288,112,290,-1803,
3146462757,1911,-1072,-14871,-83,492,-306,124,290,-1803,
3146482746,1398,-1151,-15258,-132,-33,-217,118,284,-1767,
3146502735,856,-1350,-15944,-157,-297,-120,106,284,-1755,
3146522724,936,-1297,-15686,-222,-362,-90,112,301,-1778,
3146542713,305,-1117,-15811,-245,-464,-123,112,290,-1803,
3146562702,-307,-1049,-16281,-202,-486,-139,118,296,-1767,
3146582691,147,-1310,-16713,-215,-290,-115,130,296,-1767,
3146602680,-718,-912,-16315,-333,-55,-29,118,284,-1767,
3146622669,-1712,-600,-15767,-407,73,146,136,307,-1755,
3146642658,-1286,-879,-15710,-339,169,300,142,301,-1755,
3146662647,-332,-924,-16034,-155,301,280,136,313,-1755,
3146682636,709,-530,-16240,-20,377,168,136,319,-1744,
3146702625,1289,-128,-15495,24,78,69,124,307,-1732,
3146722614,1083,-268,-15082,39,-535,74,136,307,-1707,
3146742603,-69,-599,-16499,154,-211,29,130,301,-1730,
3146762592,-1726,-601,-17737,77,338,-49,130,301,-1744,
3146782581,-1273,-443,-16688,-67,301,-44,118,307,-1744,
3146802570,-794,-157,-15185,-235,201,4,136,307,-1744,
3146822559,26,-356,-14033,-314,203,16,118,313,-1755,
3146842548,580,-707,-13343,-263,71,0,124,313,-1780,
3146862537,173,-1919,-19571,55,-182,-19,130,313,-1744,
3146882526,2517,-1591,-18870,216,-1459,-70,130,319,-1732,
3146902516,1360,-748,-15281,-227,-303,-258,112,313,-1719,
3146922505,433,-997,-14622,-390,29,-267,136,313,-1707,
3146942494,141,-1080,-14957,-268,224,-265,124,307,-1719,
3146962483,2,-771,-16607,-42,815,-363,136,307,-1730,
3146982472,683,-294,-16469,-72,1295,-427,124,307,-1696,
3147002461,825,14,-15534,-194,1048,-405,124,325,-1732,
3147022450,1442,250,-15513,-198,394,-358,100,325,-1671,
3147042439,2253,302,-16091,-177,-88,-285,124,313,-1659,
3147062428,1925,558,-16337,-289,-32,-219,112,331,-1671,
3147082417,1122,757,-16447,-428,189,-181,112,313,-1707,
3147102406,599,630,-15594,-487,482,-175,142,343,-1659,
3147122395,777,551,-15476,-362,690,-175,124,343,-1671,
3147142384,1399,240,-15820,-271,775,-134,118,331,-1611,
3147162373,2661,313,-15497,-250,598,-47,112,325,-1586,
3147182362,2965,637,-15430,-283,303,-5,100,355,-1623,
3147202351,2813,801,-15755,-316,208,-44,100,343,-1659,
3147222340,2069,1208,-15998,-319,253,-80,88,361,-1623,
3147242329,1567,1018,-16005,-259,350,-105,76,355,-1611,
3147262318,2452,1660,-16288,768,740,-157,82,337,-1634,
3147282307,2904,1769,-15930,736,890,-16,88,361,-1600,
3147302296,3192,1547,-14719,-123,297,190,82,343,-1623,
3147322285,3575,1002,-14677,-703,-411,276,82,343,-1611,
3147342274,2678,1621,-15340,-783,-1001,326,76,343,-1600,
3147362263,1788,1170,-16613,-628,-1177,492,65,343,-1600,
3147382252,2057,1093,-16383,-532,-677,398,88,361,-1623,
3147402241,1843,1688,-14816,-365,-276,269,94,355,-1586,
3147422230,1549,1411,-15722,-150,-385,260,94,355,-1575,
3147442219,1565,2015,-15282,-184,-389,152,88,355,-1600,
3147462208,717,2717,-14709,-233,-440,72,76,355,-1611,
3147482197,1186,2777,-15060,-312,-704,117,82,337,-1611,
3147502186,988,3145,-15244,-336,-856,160,100,349,-1598,
3147522175,279,2756,-16186,-234,-735,153,100,367,-1575,
3147542164,468,2203,-16381,-21,-330,-44,130,367,-1634,
3147562153,477,2258,-16091,67,-107,-219,112,373,-1600,
3147582142,358,2309,-15493,10,-146,-259,112,396,-1586,
3147602131,205,1784,-15993,-214,-442,-174,130,384,-1600,
3147622120,-140,1361,-17195,-453,-410,-317,118,378,-1575,
3147642109,-216,1971,-16529,-514,-43,-551,136,355,-1623,
3147662098,-179,2403,-16231,-469,258,-550,136,384,-1600,
3147682087,566,2906,-16088,-368,639,-473,130,384,-1575,
3147702076,1034,2890,-16235,-343,983,-396,124,384,-1575,
3147722065,1626,2920,-16217,-416,1254,-404,148,402,-1563,
3147742054,2178,3181,-16010,-474,1381,-427,130,390,-1538,
3147762043,1793,3365,-14731,-414,1403,-406,112,396,-1503,
3147782032,1753,3723,-13898,-332,909,-248,112,396,-1538,
3147802021,2045,3704,-14401,-215,305,-42,106,402,-1478,
3147822010,2296,3485,-15007,-37,87,34,100,408,-1501,
3147841999,2245,3427,-15043,91,60,48,100,408,-1501,
3147861988,1986,3346,-15067,173,30,59,112,414,-1478,
3147881977,2079,3243,-15506,290,85,1,94,414,-1538,
3147901966,2447,3242,-15989,429,153,-80,112,402,-1515,
3147921955,2867,3655,-15728,467,45,-172,106,408,-1526,
3147941944,2876,3738,-15555,404,-137,-150,106,408,-1515,
3147961933,2268,3497,-15304,188,-95,-78,106,402,-1575,
3147981922,2139,3209,-15607,-8,35,1,112,402,-1538,
3148001911,2213,3295,-15552,-16,-35,56,100,373,-1551,
3148021900,2213,3255,-15142,-12,-74,103,112,390,-1551,
3148041889,2030,2907,-15371,-88,55,91,106,402,-1575,
3148061878,2051,2885,-15525,-91,55,74,94,402,-1551,
3148081867,2298,3128,-15595,5,-3,107,112,402,-1538,
3148101856,2025,2986,-15431,62,-32,131,100,378,-1515,
3148121845,2066,2916,-15505,83,-71,107,94,390,-1551,
3148141834,2186,2797,-15603,118,-73,156,100,384,-1563,
3148161823,2309,2943,-15815,190,-243,241,112,396,-1551,
3148181812,2246,2981,-15850,277,-553,222,106,396,-1538,
3148201801,2086,2901,-15878,289,-867,306,100,378,-1503,
3148221790,1472,2700,-15543,118,-942,399,94,390,-1563,
3148241779,1106,2798,-15189,-39,-436,451,106,396,-1551,
3148261768,1037,2872,-14932,-196,377,287,100,378,-1563,
3148281757,1332,2538,-15592,-289,1054,10,112,402,-1575,
3148301746,1821,2593,-15789,-184,950,-113,118,384,-1600,
3148321735,2400,2905,-15709,-69,612,-72,82,396,-1551,
3148341724,2722,2995,-15947,-63,259,10,82,396,-1551,
3148361714,2508,3049,-15656,-90,-144,69,82,390,-1526,
3148381703,2275,3086,-15412,-90,-468,125,82,396,-1551,
3148401692,1832,2964,-15229,-44,-524,97,88,390,-1551,
3148421681,1853,3167,-15297,-3,-402,34,94,384,-1563,
3148441670,1900,3188,-15455,-12,-188,-5,82,402,-1540,
3148461659,1775,3031,-15419,-67,75,-32,94,390,-1575,
3148481648,1593,3035,-15277,-64,276,-21,100,390,-1575,
3148501637,1906,3002,-15612,10,231,15,106,408,-1551,
3148521626,2166,2976,-15770,38,49,7,94,396,-1538,
3148541615,1992,3110,-15578,14,-122,-7,88,396,-1563,
3148561604,1849,3031,-15654,1,-238,6,88,378,-1551,
3148581593,1822,3135,-15462,-8,-273,15,76,390,-1526,
3148601582,1848,3118,-15332,-27,-204,4,88,384,-1490,
3148621571,1886,3061,-15336,-22,-69,-25,94,402,-1538,
3148641560,1624,2993,-15400,0,16,-31,94,390,-1540,
3148661549,1560,3112,-15503,33,76,-40,106,402,-1575,
3148681538,1506,3012,-15620,43,96,-22,76,396,-1538,
3148701527,1678,3021,-15550,66,41,8,94,384,-1551,
3148721516,1721,3009,-15653,69,33,-9,76,390,-1540,
3148741505,1918,3160,-15652,62,4,-41,94,396,-1563,
3148761494,1659,3095,-15465,22,-4,-51,100,373,-1588,
3148781483,1532,2985,-15520,26,-30,-17,100,396,-1551,
3148801472,1724,2942,-15615,15,-19,14,94,396,-1563,
3148821461,1754,3006,-15542,-39,0,36,94,384,-1563,
3148841450,1738,2992,-15513,-48,-9,45,82,414,-1575,
3148861439,1678,2937,-15523,-33,-16,47,112,378,-1563,
3148881428,1586,2924,-15437,-15,-30,61,88,378,-1538,
3148901417,1493,2822,-15617,24,-55,97,94,402,-1538,
3148921406,1782,3045,-15613,39,-77,118,88,373,-1526,
3148941395,1966,3206,-15510,-32,-42,161,94,396,-1540,
3148961384,1524,3005,-15365,-12,-52,211,88,378,-1563,
3148981373,1701,2729,-15628,85,-77,216,88,384,-1551,
3149001362,2065,2922,-15331,147,-50,228,71,396,-1538,
3149021351,2313,2286,-15421,236,175,337,71,390,-1575,
3149041340,2152,2943,-15664,203,94,151,76,384,-1551,
3149061329,1694,3042,-15681,163,184,164,65,378,-1563,
3149081318,2110,2483,-16077,-103,312,272,59,367,-1538,
3149101307,2619,2485,-15270,-56,176,265,53,367,-1575,
3149121296,2623,2149,-15742,48,256,258,59,378,-1563,
3149141285,4572,1461,-16661,-1,265,300,41,361,-1526,
3149161274,4777,729,-17258,-160,415,372,47,343,-1540,
3149181263,3983,223,-16196,-362,592,381,41,355,-1538,
3149201252,3300,61,-13485,-445,248,250,11,349,-1540,
3149221241,2197,1072,-13498,-366,-436,37,0,367,-1538,
3149241230,1875,1552,-14419,-343,-1054,-84,29,355,-1538,
3149261219,2298,2845,-16960,-375,-1420,-100,5,378,-1538,
3149281208,3783,3045,-17872,-619,-798,267,29,373,-1551,
3149301197,591,3402,-15051,-730,-505,391,29,390,-1563,
3149321186,2189,3908,-13019,-405,-1106,93,35,378,-1551,
3149341175,353,5555,-15410,-102,-928,-89,53,396,-1551,
3149361164,-2385,5605,-16657,-69,-192,22,53,378,-1526,
3149381153,-2019,5333,-16263,-229,-528,181,71,402,-1563,
3149401142,-1057,5065,-15737,-295,-883,376,71,408,-1563,
3149421131,-438,5187,-16218,-312,-567,561,59,378,-1563,
3149441120,-655,5126,-15619,-513,-130,744,59,402,-1588,
3149461109,-2062,5029,-15046,-753,-204,844,65,390,-1563,
3149481098,-2228,4597,-14993,-807,-778,690,59,396,-1551,
3149501087,28,4091,-14952,-611,-825,477,65,396,-1540,
3149521076,965,4098,-15265,-350,122,522,59,432,-1551,
3149541065,297,4279,-15235,-16,1234,752,53,414,-1538,
3149561054,35,4675,-15662,47,1121,829,53,396,-1526,
3149581043,938,4982,-15806,-636,472,805,41,402,-1515,
3149601032,1525,4776,-14768,-1091,563,885,17,414,-1515,
3149621021,2095,3905,-13790,1,413,1042,11,414,-1492,
3149641010,2696,3581,-14344,1284,-157,993,-12,396,-1503,
3149660999,1944,4101,-15823,2032,45,885,-18,402,-1515,
3149680988,1320,3843,-15899,1859,714,735,-24,378,-1538,
3149700977,1299,3286,-16080,1403,986,628,-48,373,-1588,
3149720966,1314,3420,-14895,1344,641,765,-36,343,-1575,
3149740955,775,3352,-13933,1163,-885,941,-42,331,-1623,
3149760944,163,2849,-15333,1133,-1915,1035,-60,307,-1636,
3149780933,865,1953,-16554,1159,-1293,1066,-48,319,-1623,
3149800922,1773,2098,-16626,950,79,1151,-30,290,-1719,
3149820912,2525,2796,-13657,257,1051,841,-42,266,-1696,
3149840901,1570,3060,-14356,-655,378,628,-54,266,-1719,
3149860890,843,2740,-15462,-783,19,540,-77,260,-1696,
3149880879,449,2099,-16803,-534,-207,423,-66,266,-1684,
3149900868,249,1581,-17085,-607,-323,354,-66,260,-1671,
3149920857,513,2289,-16351,-888,-391,375,-72,260,-1682,
3149940846,4491,2819,-15508,-999,-272,316,-60,278,-1648,
3149960835,2877,2846,-15097,-837,-394,-155,-77,290,-1636,
3149980824,574,3804,-15135,-533,-998,-104,-60,290,-1648,
3150000813,-735,4336,-16880,-356,-1153,196,-42,301,-1671,
3150020802,-1141,4734,-16818,-477,-352,343,-42,296,-1648,
3150040791,-1349,5010,-16733,-494,-34,154,-36,307,-1648,
3150060780,-1407,4278,-15541,-564,185,27,-12,296,-1659,
3150080769,-1017,4384,-14603,-618,591,396,-36,307,-1671,
3150100758,-638,4572,-14477,-743,383,476,-42,296,-1648,
3150120747,820,6100,-13385,-1300,-125,171,-36,301,-1634,
3150140736,172,7021,-13849,-1399,-602,-224,-60,307,-1611,
3150160725,53,7264,-13976,-1298,-848,-391,-42,331,-1600,
3150180714,-219,8200,-13214,-1343,-1055,-642,-36,337,-1588,
3150200703,-918,8722,-12012,-1029,-1016,-866,-18,361,-1576,
3150220692,-2048,9379,-6589,-865,-1432,-437,-12,373,-1588,
3150240681,-1659,9610,-8550,-2861,-4621,680,17,373,-1540,
3150260670,-6980,6673,-21374,-1670,-3295,691,23,396,-1600,
3150280659,-4746,5436,-13673,2722,1714,821,65,432,-1540,
3150300648,-2128,5803,-16118,1919,1064,1338,59,390,-1576,
3150320637,-600,4167,-16609,1535,1063,1094,29,396,-1586,
3150340626,843,4229,-16606,1253,1024,1021,35,349,-1575,
3150360615,420,4919,-15684,1110,774,830,0,361,-1600,
3150380604,419,4886,-15717,514,757,734,-6,331,-1588,
3150400593,3365,4766,-15981,235,1084,512,-30,313,-1563,
3150420582,1942,4950,-15498,549,1336,-278,-24,319,-1576,
3150440571,1524,4652,-17592,267,1084,-596,-42,313,-1588,
3150460560,2727,4810,-18818,-282,938,-551,-42,307,-1588,
3150480549,2481,6526,-19024,-800,1126,-521,-42,319,-1526,
3150500538,1141,7581,-14723,-1139,1151,-298,-72,325,-1515,
3150520527,-53,8486,-10671,-999,-365,414,-66,337,-1515,
3150540516,398,7465,-14675,647,-1381,858,-66,325,-1432,
3150560505,-731,7258,-14965,475,-895,339,-60,337,-1492,
3150580494,-731,7258,-14965,147,-483,542,-48,319,-1478,
3150600483,-1178,7523,-13432,147,-483,542,-48,307,-1478,
3150620472,-1855,6970,-12431,189,-539,721,-60,307,-1492,
3150640461,-1616,6626,-11360,191,-623,990,-60,307,-1492,
3150660450,-803,6730,-11072,151,-589,1148,-72,296,-1515,
3150680439,-928,6862,-11692,63,-652,1144,-60,290,-1503,
3150700428,-2339,6949,-12442,145,-606,1165,-77,290,-1503,
3150720417,-3805,6925,-14902,390,-233,1183,-54,272,-1492,
3150740406,-3785,6674,-16333,463,176,1366,-66,272,-1478,
3150760395,-3214,6149,-16341,360,113,1539,-83,254,-1478,
3150780384,-2888,5538,-16547,245,-428,1767,-83,236,-1478,
3150800373,-1953,4379,-16099,26,-981,2058,-101,242,-1467,
3150820362,-459,3343,-16334,-105,-1618,2300,-83,230,-1478,
3150840351,205,3324,-16918,-123,-2155,2476,-95,201,-1478,
3150860340,-676,4106,-17093,-62,-2067,2550,-89,189,-1515,
3150880329,-1317,4092,-16243,-131,-1117,2554,-77,177,-1526,
3150900318,-958,3730,-15406,-67,-714,2588,-89,177,-1551,
3150920307,290,3438,-15572,69,-745,2526,-95,142,-1563,
3150940296,1656,2740,-14548,162,-704,2154,-77,142,-1551,
3150960285,2000,3187,-14944,133,-844,1522,-77,118,-1588,
3150980274,-129,5017,-15806,-27,-530,1245,-83,100,-1600,
3151000263,-3073,5439,-15330,-106,-187,1546,-72,106,-1575,
3151020252,-2988,4855,-14632,271,-699,1895,-83,100,-1575,
3151040241,302,3619,-14399,630,-1572,2054,-60,71,-1563,
3151060230,593,3274,-14891,513,-1704,2002,-66,65,-1600,
3151080219,-5367,5289,-12979,98,-1430,1708,-54,65,-1575,
3151100208,-9272,6545,-13419,258,-342,1426,-42,29,-1636,
3151120197,-6259,4996,-15009,517,95,1660,-42,35,-1625,
3151140186,-3697,4154,-14675,265,193,2010,-18,5,-1588,
3151160175,-1280,3558,-14892,133,-329,1934,-30,5,-1648,
3151180164,54,2916,-15933,117,-1185,1474,-30,11,-1611,
3151200153,-3114,3208,-15763,-47,-1567,1101,-24,-18,-1588,
3151220142,-2133,3054,-13373,-329,-1634,1280,5,-12,-1611,
3151240131,-1859,4342,-13498,-199,-2128,1266,0,-6,-1611,
3151260120,-7182,7137,-15054,218,-1247,832,17,-6,-1625,
3151280110,-11176,6280,-18324,956,68,434,29,-24,-1575,
3151300099,-10072,4313,-17820,1059,45,1009,35,-24,-1563,
3151320088,-8884,3840,-16252,855,40,1598,53,-48,-1623,
3151340077,-8139,4040,-16175,743,192,2025,59,-42,-1588,
3151360066,-8228,3792,-18464,335,829,2551,59,-60,-1588,
3151380055,-3871,1303,-19811,-603,1641,3175,59,-60,-1575,
3151400044,974,2185,-16088,-2040,1340,3023,53,-77,-1563,
3151420033,1652,4682,-7062,-1784,488,2403,71,-54,-1540,
3151440022,292,3136,-12954,118,-1728,1717,47,-66,-1551,
3151460011,-424,4296,-17587,324,-1647,1417,59,-66,-1551,
3151480000,-912,4908,-16458,-129,-763,1369,71,-66,-1575,
3151499989,-1694,4992,-16743,-38,-665,1437,88,-48,-1600,
3151519978,-1534,4957,-16520,38,-639,1561,106,-66,-1600,
3151539967,-698,4797,-15995,-24,-560,1630,118,-54,-1551,
3151559956,-709,4762,-15285,-167,-527,1607,118,-72,-1600,
3151579945,-976,4769,-14068,-334,-561,1548,136,-72,-1576,
3151599934,-1220,4299,-13270,-177,-892,1442,153,-60,-1563,
3151619923,-2044,4088,-14750,21,-978,1359,159,-54,-1600,
3151639912,-2633,3811,-15455,-118,-768,1336,177,-66,-1576,
3151659901,-2598,3248,-16191,-134,-947,1347,177,-66,-1563,
3151679890,-3280,3197,-16421,-202,-960,1268,183,-60,-1588,
3151699879,-2244,2327,-13958,-363,-420,1354,207,-42,-1565,
3151719868,283,2297,-12451,-204,-264,1612,213,-54,-1588,
3151739857,-1348,3944,-13603,115,-498,906,230,-48,-1588,
3151759846,-3461,5521,-13732,9,-661,480,213,-36,-1563,
3151779835,-4487,6760,-13462,-210,-559,516,230,-48,-1563,
3151799824,-4324,8036,-13781,-329,-361,795,225,-36,-1588,
3151819813,-4573,8923,-14343,-248,-679,922,248,-42,-1588,
3151839802,-2599,8480,-14054,-342,-646,1093,248,-36,-1600,
3151859791,-1323,7727,-13840,-314,-908,1016,254,-30,-1588,
3151879780,-2843,8547,-14015,-134,-936,928,242,-30,-1576,
3151899769,-3574,9234,-14118,-63,-571,1056,272,-36,-1575,
3151919758,-3184,8938,-13935,-107,-533,1135,266,-30,-1563,
3151939747,-2919,8128,-13573,-92,-758,1144,278,-12,-1611,
3151959736,-1432,6997,-13899,-122,-636,1203,290,-6,-1575,
3151979725,-558,6568,-13539,-57,-550,1150,296,-6,-1563,
3151999714,-1191,6534,-14099,42,-562,1016,301,-6,-1551,
3152019703,-1817,6987,-14702,-86,-513,878,302,23,-1588,
3152039692,-2824,7439,-15041,-223,-763,728,296,11,-1563,
3152059681,-3600,8022,-15543,-311,-862,677,319,0,-1551,
3152079670,-3970,7950,-15093,-344,-654,684,307,5,-1540,
3152099659,-3665,7950,-14429,-237,-611,794,319,29,-1551,
3152119648,-3501,7961,-13637,-157,-636,801,325,29,-1528,
3152139637,-3622,7682,-13127,-29,-548,837,343,23,-1540,
3152159626,-3972,8309,-14178,237,-601,915,319,29,-1515,
3152179615,-4520,8970,-15299,340,-905,1175,343,41,-1528,
3152199604,-3270,9041,-14719,233,-862,1430,337,47,-1515,
3152219593,-2067,8362,-13836,212,-617,1373,349,47,-1492,
3152239582,-1762,7723,-12792,242,-475,1278,361,47,-1528,
3152259571,-1595,7510,-12249,297,-356,1167,361,71,-1515,
3152279560,-1912,7703,-12014,382,-236,1027,367,53,-1551,
3152299549,-2677,8361,-12140,497,-221,909,367,65,-1503,
3152319538,-3222,9105,-12733,556,-171,847,355,59,-1515,
3152339527,-4030,9720,-13473,567,-207,778,361,41,-1515,
3152359516,-5367,10265,-14340,536,-273,765,367,65,-1503,
3152379505,-6327,10545,-14885,389,-232,912,367,65,-1515,
3152399494,-5404,10028,-14442,248,-284,1139,378,59,-1515,
3152419483,-4093,8943,-13634,188,-346,1255,378,59,-1503,
3152439472,-2895,8078,-13424,182,-450,1307,378,76,-1515,
3152459461,-1881,7432,-13146,130,-472,1280,373,88,-1503,
3152479450,-1772,6897,-12202,83,-510,1178,378,76,-1515,
3152499439,-2081,7048,-11911,129,-590,1048,361,82,-1480,
3152519428,-2351,7672,-12396,116,-728,893,378,94,-1492,
3152539417,-2778,8680,-13535,64,-1059,626,367,94,-1492,
3152559406,-3965,10045,-14925,141,-1216,396,378,94,-1467,
3152579395,-6074,11995,-16063,374,-968,399,402,100,-1478,
3152599384,-7121,11372,-16563,596,-536,683,396,100,-1430,
3152619373,-5449,9825,-15714,307,-89,1145,402,100,-1455,
3152639362,-4276,8776,-13983,-46,-12,1380,402,106,-1515,
3152659351,-4212,6680,-12660,-109,-296,1388,402,118,-1492,
3152679340,-3440,4977,-11849,-138,-316,1418,402,130,-1455,
3152699329,-2790,3314,-11452,-116,-422,1435,384,142,-1480,
3152719318,-2610,1698,-10531,-13,-953,1451,390,148,-1455,
3152739308,-2615,479,-10849,330,-1535,1480,396,159,-1455,
3152759297,-414,58,-13855,797,-1462,1546,402,148,-1444,
3152779286,3257,622,-17508,1061,-668,1570,408,165,-1467,
3152799275,4934,1837,-18796,973,-120,1489,408,165,-1419,
3152819264,5484,3237,-17635,799,-466,1284,396,153,-1455,
3152839253,5798,4653,-16007,485,-789,890,396,177,-1432,
3152859242,5617,6801,-14562,68,-873,430,414,171,-1432,
3152879231,4057,9839,-13878,-260,-829,46,402,148,-1432,
3152899220,75,12184,-12944,-408,-564,-149,414,165,-1455,
3152919209,-3943,13204,-11721,-451,-42,-147,420,165,-1407,
3152939198,-6238,12815,-10458,-510,151,-79,414,171,-1430,
3152959187,-6552,10770,-9785,-690,-39,-100,402,171,-1419,
3152979176,-4948,8639,-9642,-935,-201,-45,426,171,-1371,
3152999165,-4865,6402,-8978,-1062,-288,-38,414,159,-1407,
3153019154,-5384,4670,-8795,-886,-370,-175,408,171,-1384,
3153039143,-7448,5260,-10432,-548,-378,-350,432,201,-1384,
3153059132,-9504,6947,-12634,-244,-615,-441,414,183,-1371,
3153079121,-10588,8376,-14071,-188,-889,-226,420,183,-1382,
3153099110,-8802,8373,-14893,-140,-1199,165,426,201,-1323,
3153119099,-5280,7254,-16073,0,-1134,409,420,201,-1348,
3153139088,-2745,6547,-16744,205,-770,493,426,189,-1348,
3153159077,-1605,6399,-16430,387,-223,515,432,195,-1323,
3153179066,-1465,6026,-15457,467,194,429,444,201,-1323,
3153199055,-1482,5212,-14990,370,360,118,438,207,-1359,
3153219044,-2621,6247,-15649,201,262,-417,426,183,-1359,
3153239033,-4039,8484,-17166,-58,173,-862,420,177,-1359,
3153259022,-5926,9631,-17656,-414,263,-1047,420,189,-1348,
3153279011,-7312,9893,-16731,-729,247,-1040,408,195,-1382,
3153299000,-7785,9675,-16141,-918,272,-1028,432,177,-1334,
3153318989,-7853,8859,-15958,-850,481,-975,420,171,-1311,
3153338978,-7977,6867,-15956,-677,775,-887,420,195,-1382,
3153358967,-7787,5613,-15136,-646,801,-902,426,177,-1323,
3153378956,-8820,6510,-12956,-728,723,-858,414,189,-1359,
3153398945,-7912,6119,-10236,-681,811,-393,420,165,-1359,
3153418934,-4867,3995,-7722,-374,1031,29,408,189,-1359,
3153438923,-1965,1789,-6065,55,1228,-134,408,171,-1382,
3153458912,-2238,119,-5122,581,1015,-709,402,171,-1348,
3153478901,-3455,-2815,-6699,1311,649,-1772,414,159,-1396,
3153498890,-6220,2274,-17806,2140,-795,-3652,402,153,-1396,
3153518879,-7370,20294,-32768,1713,-581,-3879,402,124,-1407,
3153538868,-5743,17609,-27191,132,2113,-963,426,88,-1419,
3153558857,-4328,-1244,-6540,592,2539,1033,408,71,-1432,
3153578846,1665,-6116,-941,1653,2758,314,408,76,-1444,
3153598835,2022,1245,-11269,1156,1601,-1706,367,59,-1444,
3153618824,-8133,7780,-17156,333,-1113,-3092,367,59,-1480,
3153638813,-13018,11164,-17705,-444,-2195,-2794,361,35,-1503,
3153658802,-10008,10726,-17141,-684,-1230,-1861,384,17,-1444,
3153678791,-6457,6707,-15265,-534,-97,-1364,396,11,-1444,
3153698780,-6889,5451,-14626,-371,297,-1433,396,17,-1432,
3153718769,-8939,7169,-14599,-322,151,-1676,390,5,-1444,
3153738758,-10220,9019,-15088,-406,-39,-1677,396,0,-1467,
3153758747,-9616,9164,-15343,-601,-199,-1458,396,-12,-1444,
3153778736,-8401,7507,-14133,-771,-83,-1092,373,5,-1444,
3153798725,-5210,4526,-12871,-602,425,-697,384,-36,-1430,
3153818714,-4157,3145,-11165,-211,853,-664,384,-6,-1419,
3153838703,-7448,4136,-9899,154,767,-873,378,-6,-1467,
3153858692,-11392,5830,-9770,321,253,-1025,373,-30,-1444,
3153878681,-12498,7257,-10085,78,-132,-966,367,-30,-1432,
3153898670,-13911,8878,-12068,-68,-353,-891,349,-30,-1432,
3153918659,-12807,9899,-14272,86,-1310,-525,367,-54,-1432,
3153938648,-8739,8599,-13504,-176,-1074,34,349,-30,-1455,
3153958637,-6290,6987,-13255,-103,-637,282,361,-60,-1419,
3153978626,-5231,6482,-14464,-8,-308,275,367,-42,-1432,
3153998615,-4950,5550,-14720,29,-271,195,384,-60,-1444,
3154018604,-6326,5958,-14882,-19,-286,-5,373,-30,-1407,
3154038593,-9086,8056,-15285,-71,-369,-186,390,-36,-1407,
3154058582,-11528,9761,-15324,-185,-349,-76,373,-42,-1396,
3154078571,-12146,10874,-15471,-307,-209,258,384,-54,-1419,
3154098560,-11881,8109,-14584,-274,207,843,384,-42,-1407,
3154118549,-10483,2951,-12449,-26,828,1484,384,-18,-1407,
3154138538,-7918,-1577,-11969,346,1402,1721,384,-30,-1432,
3154158527,-4552,-4031,-11068,466,1659,1559,373,-18,-1419,
3154178516,-1228,-4002,-8806,516,1369,1189,378,-18,-1444,
3154198506,1146,-1381,-7320,583,884,634,367,-6,-1467,
3154218495,1168,2768,-9857,741,455,-138,378,-24,-1480,
3154238484,-1794,5132,-14738,704,73,-825,361,-18,-1480,
3154258473,-4656,5975,-16873,405,-279,-1114,361,-18,-1467,
3154278462,-6365,6145,-17429,258,-586,-1112,349,-24,-1432,
3154298451,-7565,5902,-16837,174,-605,-1060,349,-36,-1467,
3154318440,-9847,7128,-16574,53,-660,-1145,355,-24,-1480,
3154338429,-11734,8552,-15758,-155,-727,-1010,367,-42,-1421,
3154358418,-11227,9536,-15140,-217,-563,-582,367,-54,-1444,
3154378407,-9498,9644,-15236,-94,-156,-175,367,-48,-1407,
3154398396,-9732,9574,-15865,23,14,-10,373,-42,-1455,
3154418385,-10789,10734,-16507,-79,-161,116,384,-42,-1467,
3154438374,-10808,10253,-16340,-344,-257,491,367,-42,-1444,
3154458363,-9706,8001,-15093,-566,-220,919,378,-42,-1455,
3154478352,-8449,6671,-13825,-681,-143,1078,378,-42,-1467,
3154498341,-7977,5704,-12935,-684,-104,969,373,-24,-1407,
3154518330,-8492,7067,-14641,-574,-362,748,384,-12,-1430,
3154538319,-7304,7111,-16394,-672,-483,825,384,11,-1467,
3154558308,-4112,4867,-15891,-732,-260,1080,396,5,-1419,
3154578297,-945,2763,-14453,-563,349,1232,390,29,-1396,
3154598286,320,3376,-12091,-341,809,1136,408,35,-1419,
3154618275,-2591,6066,-10496,-166,982,812,390,53,-1419,
3154638264,-5632,7370,-8920,-96,996,744,378,53,-1382,
3154658253,-7584,7592,-7853,-59,688,694,402,53,-1419,
3154678242,-7555,6917,-9765,-51,215,461,373,47,-1444,
3154698231,-7342,6772,-10283,-129,-167,218,373,59,-1432,
3154718220,-8622,7573,-10414,3,55,306,384,47,-1407,
3154738209,-10039,6317,-10177,229,810,670,378,71,-1444,
3154758198,-11343,5346,-8907,400,1152,956,373,47,-1432,
3154778187,-11958,5459,-8768,592,991,1156,378,65,-1455,
3154798176,-11514,5650,-11691,753,653,1244,367,59,-1432,
3154818165,-11255,7147,-17197,724,150,1243,355,82,-1419,
3154838154,-12427,11078,-20739,348,-430,1370,349,82,-1455,
3154858143,-15173,15146,-21937,14,-1231,1957,343,76,-1444,
3154878132,-11157,16188,-21835,79,-1709,3062,349,82,-1480,
3154898121,-8439,12118,-20544,-164,-500,3620,367,76,-1467,
3154918110,-4062,4793,-19627,-219,77,3939,367,124,-1455,
3154938099,3307,-1453,-18301,-288,464,3619,361,130,-1444,
3154958088,5270,-586,-12518,-459,256,2908,343,142,-1455,
3154978077,1666,4032,-9226,-455,-449,2098,337,153,-1467,
3154998066,-824,8131,-9994,-465,-1422,1680,337,153,-1469,
3155018055,-246,9553,-9100,-544,-2197,1452,337,183,-1419,
3155038044,735,8674,-10706,-388,-2308,1216,325,201,-1432,
3155058033,3160,6983,-14032,-233,-2051,1204,349,189,-1396,
3155078022,5635,4227,-16334,-46,-1461,1148,355,219,-1396,
3155098011,4284,5354,-15398,166,-820,1241,355,219,-1382,
3155118000,-229,7804,-13533,415,-440,1532,367,236,-1359,
3155137989,-1859,8635,-12199,457,-404,1825,361,236,-1382,
3155157978,820,7088,-11852,224,-376,1735,367,230,-1384,
3155177967,1713,5106,-11956,87,-58,1182,367,242,-1396,
3155197956,2590,5383,-14452,302,215,809,349,230,-1444,
3155217945,2597,4110,-16180,431,359,580,349,236,-1396,
3155237934,4320,2355,-16236,510,190,485,343,242,-1421,
3155257923,3824,1563,-14158,445,234,226,349,248,-1432,
3155277912,-155,2555,-13729,253,44,-167,331,230,-1396,
3155297901,-1193,4059,-13364,199,-582,-278,331,248,-1444,
3155317890,-793,5628,-13643,186,-453,-421,337,248,-1444,
3155337879,-1109,6099,-14981,33,-66,-677,355,248,-1421,
3155357868,-2010,5208,-13145,-19,-5,-851,343,266,-1421,
3155377857,-3353,5311,-12532,184,195,-888,361,260,-1432,
3155397846,-2805,4045,-13070,583,654,-984,355,254,-1444,
3155417835,-2530,2803,-14374,876,1071,-1148,373,254,-1503,
3155437824,-4165,4384,-16422,655,1039,-1164,361,236,-1492,
3155457813,-4561,5721,-16172,235,698,-1125,361,248,-1492,
3155477802,-3124,6010,-17897,-85,724,-1092,378,230,-1540,
3155497791,-1225,5984,-19240,-650,847,-978,378,236,-1528,
3155517780,-5076,8580,-14465,-1170,651,-678,378,230,-1515,
3155537769,-4748,8491,-14978,-948,579,-292,378,248,-1528,
3155557758,295,9292,-12890,-553,976,180,384,272,-1551,
3155577747,-1002,7853,-8476,103,1409,-175,367,266,-1515,
3155597736,-1978,5959,-14516,722,1524,-568,361,278,-1540,
3155617725,-2192,5912,-17361,510,790,-573,361,254,-1540,
3155637714,-3514,6236,-17707,276,-88,-482,361,272,-1565,
3155657704,-2971,5954,-16771,186,-250,-304,361,278,-1540,
3155677693,-61,3848,-12603,321,-637,-129,361,278,-1551,
3155697682,4093,5152,-12843,640,-589,-379,355,266,-1528,
3155717671,1391,8707,-16953,611,46,-1112,378,266,-1528,
3155737660,-1461,9554,-15830,316,149,-1259,367,272,-1563,
3155757649,-3093,8495,-14258,157,81,-769,378,260,-1540,
3155777638,-4148,7303,-13655,29,-115,-266,384,260,-1540,
3155797627,-2068,6639,-14612,-38,-225,-1,396,266,-1515,
3155817616,-1761,6763,-14726,-33,-124,-20,396,254,-1528,
3155837605,-2892,7482,-14122,76,215,-149,402,260,-1515,
3155857594,-3064,6583,-13144,130,598,-148,396,254,-1551,
3155877583,-962,5951,-13604,331,507,-133,402,254,-1517,
3155897572,-286,6840,-15541,471,74,-324,390,248,-1528,
3155917561,-1512,7098,-15737,223,-643,-314,384,248,-1503,
3155937550,-2928,7177,-14199,-53,-1112,-146,396,272,-1517,
3155957539,-5310,7948,-14319,-84,-792,-99,402,242,-1515,
3155977528,-5426,7196,-13373,-31,-301,76,402,260,-1515,
3155997517,-3517,6661,-13284,71,-66,295,414,248,-1492,
3156017506,-2060,6316,-14064,114,85,385,402,242,-1517,
3156037495,-688,5277,-14270,186,169,456,402,254,-1517,
3156057484,22,6213,-16170,224,150,371,390,260,-1480,
3156077473,-40,6852,-16327,59,-5,194,402,254,-1517,
3156097462,414,6655,-15773,-82,-133,33,384,242,-1540,
3156117451,-313,5308,-14289,-145,-279,-93,379,272,-1492,
3156137440,-1589,5174,-14454,-53,-310,-156,373,272,-1480,
3156157429,-3839,6410,-13786,48,-415,-114,379,260,-1480,
3156177418,-3115,6524,-14314,139,-481,-21,402,248,-1455,
3156197407,-1763,6022,-14993,108,-408,-24,390,266,-1480,
3156217396,-3113,7163,-15448,14,-412,-113,378,266,-1444,
3156237385,-2580,6510,-14107,-82,-148,-45,402,254,-1455,
3156257374,-3548,7959,-14082,-42,-85,-26,384,254,-1469,
3156277363,-4870,6729,-14196,-166,18,68,384,254,-1467,
3156297352,-5096,6817,-14362,-322,18,244,378,266,-1444,
3156317341,-4583,6647,-12741,-315,-64,454,396,260,-1455,
3156337330,-3351,7989,-13785,-251,-137,512,384,254,-1503,
3156357319,-1935,5907,-13260,-181,-284,629,379,272,-1492,
3156377308,-1816,10598,-17532,-65,-361,607,384,290,-1480,
3156397297,-803,5325,-12634,-411,-203,723,384,272,-1480,
3156417286,-3821,6209,-13109,-263,-306,511,396,278,-1480,
3156437275,-7240,10520,-14978,-276,-584,497,367,296,-1469,
3156457264,-10845,5113,-10790,-438,-797,858,373,290,-1480,
3156477253,-14793,7993,-11281,-349,-1458,1079,373,290,-1455,
3156497242,-22491,10623,-14522,-521,-1286,1529,367,290,-1517,
3156517231,-20473,9221,-18461,-476,-862,2453,378,296,-1444,
3156537220,-15448,3419,-11700,30,-110,3273,373,307,-1503,
3156557209,-12886,2024,-6453,467,-37,3128,384,319,-1503,
3156577198,-14262,1358,-8931,547,-517,2727,367,319,-1551,
3156597187,-15611,2128,-11828,829,-776,2895,361,319,-1563,
3156617176,-17183,3864,-14751,1117,-101,3545,325,319,-1551,
3156637165,-17986,4767,-18515,1236,739,4694,313,302,-1588,
3156657154,-16297,3008,-21499,986,1545,6011,302,290,-1600,
3156677143,-13159,-559,-20791,253,2073,6782,242,296,-1625,
3156697132,-3913,-2226,-22682,-782,1772,6576,189,302,-1636,
3156717121,9904,-250,-27830,-1892,327,5646,136,302,-1684,
3156737110,18806,-556,-26259,-2449,-1314,4682,65,307,-1684,
3156757099,19328,1637,-22852,-2196,-2211,4079,41,319,-1709,
3156777088,12366,4028,-22403,-1875,-2273,3753,41,337,-1721,
3156797077,11378,3095,-20777,-1703,-1821,3767,35,361,-1684,
3156817066,13081,2768,-20724,-1710,-1319,3754,41,367,-1709,
3156837055,13876,3883,-20150,-2008,-1111,3533,23,373,-1684,
3156857044,11277,4176,-17522,-2107,-1141,3055,29,402,-1636,
3156877033,8324,3375,-15871,-1763,-1203,2888,5,426,-1613,
3156897022,7475,885,-14971,-1253,-997,2965,0,432,-1551,
3156917011,6261,-1325,-14442,-672,-414,3071,-30,450,-1528,
3156937000,5002,-2404,-12610,-83,181,3272,-48,450,-1480,
3156956989,3880,-1902,-9999,270,717,3163,-72,432,-1480,
3156976978,714,-215,-8767,435,510,2925,-107,414,-1467,
3156996967,-2335,-160,-8570,519,231,2940,-131,384,-1444,
3157016956,-1591,-3232,-9532,502,112,3291,-178,373,-1396,
3157036945,4937,-7193,-10397,491,330,3411,-172,355,-1371,
3157056934,6309,-7237,-9205,491,597,3001,-208,319,-1371,
3157076923,3858,-6182,-7610,608,486,2727,-214,296,-1348,
3157096912,2888,-5721,-6727,888,386,2866,-249,266,-1384,
3157116901,1657,-6858,-9288,1297,494,2896,-261,230,-1323,
3157136891,5812,-10742,-13285,1285,1122,2620,-285,189,-1300,
3157156880,12731,-12339,-14148,831,957,1971,-297,165,-1300,
3157176869,10197,-9596,-13923,900,-227,1522,-320,124,-1251,
3157196858,6417,-6960,-14389,1094,-365,1598,-314,118,-1263,
3157216847,4499,-5640,-12573,1155,235,1916,-320,94,-1323,
3157236836,891,-6758,-11252,1505,-113,2155,-326,76,-1263,
3157256825,9859,-14091,-18385,741,77,2112,-326,47,-1251,
3157276814,10746,-11765,-13578,-1171,-803,2199,-338,0,-1251,
3157296803,7876,-6807,-11156,218,-1345,2734,-332,-18,-1300,
3157316792,7923,-7560,-11890,685,-799,2067,-326,-48,-1311,
3157336781,7226,-7579,-13244,864,-759,1503,-320,-66,-1359,
3157356770,4556,-9408,-12559,1167,-1354,1636,-314,-77,-1336,
3157376759,3135,-8448,-11372,-254,-1071,2720,-285,-119,-1359,
3157396748,2437,-7443,-13707,-1006,729,1760,-297,-143,-1396,
3157416737,3224,-8190,-14301,-1093,1253,1103,-291,-137,-1384,
3157436726,6301,-7395,-13022,-691,663,1329,-279,-166,-1371,
3157456715,4635,-7850,-13033,-7,-14,1170,-291,-166,-1371,
3157476704,3340,-9397,-11993,-95,-57,831,-291,-190,-1348,
3157496693,4532,-11176,-9669,-240,-274,248,-285,-202,-1371,
3157516682,6478,-10734,-12325,362,-1452,32,-291,-190,-1371,
3157536671,4727,-8799,-13896,467,-828,95,-279,-196,-1407,
3157556660,4373,-8124,-13799,792,-105,-13,-261,-220,-1432,
3157576649,2983,-6754,-15017,1285,18,-5,-261,-202,-1396,
3157596638,3488,-7383,-12572,1200,544,212,-255,-214,-1382,
3157616627,6242,-8267,-11798,1363,-551,37,-273,-226,-1359,
3157636616,3052,-6645,-14012,1442,-1667,196,-249,-226,-1384,
3157656605,831,-9136,-13456,1727,-3044,342,-273,-237,-1384,
3157676594,1850,-11571,-11473,2000,-3775,259,-237,-231,-1396,
3157696583,2257,-12637,-10216,1861,-2979,2,-220,-261,-1455,
3157716572,2746,-14452,-8329,30,2151,98,-184,-279,-1492,
3157736561,2743,-9391,-13057,-954,4167,-130,-178,-285,-1492,
3157756550,773,-7865,-15883,268,1487,-153,-208,-273,-1407,
3157776539,1368,-9799,-13670,411,1702,306,-220,-261,-1396,
3157796528,2674,-11675,-10246,322,2057,799,-237,-279,-1348,
3157816517,4282,-10900,-11490,210,2254,1015,-243,-279,-1288,
3157836506,9157,-13737,-4720,-201,2695,1246,-249,-291,-1251,
3157856495,4953,-10156,-12098,244,404,316,-255,-314,-1240,
3157876484,3671,-8001,-12777,658,1667,-38,-237,-314,-1190,
3157896473,4345,-11011,-8722,889,2808,183,-279,-320,-1167,
3157916462,6268,-13270,-8637,753,1970,-232,-255,-332,-1107,
3157936451,5199,-11608,-11707,928,417,-1013,-261,-320,-1034,
3157956440,7010,-5710,-11318,1480,1709,149,-285,-308,-1034,
3157976429,7453,-12704,-8875,1450,4895,2421,-273,-314,-986,
3157996418,5893,-17759,-443,-825,5918,1913,-255,-350,-878,
3158016407,4373,-14408,-851,-876,3349,9,-249,-391,-757,
3158036396,7551,-13391,-4380,-1013,-258,-216,-231,-368,-709,
3158056385,7484,-15180,-4162,-1770,-2743,-12,-243,-379,-698,
3158076374,5573,-14045,-7164,-1619,-3957,-37,-237,-374,-805,
3158096363,4878,-9960,-13755,-1134,-3286,-253,-237,-368,-853,
3158116352,2503,-9079,-12038,-1240,-423,-444,-243,-368,-950,
3158136341,3710,-12689,-7139,-724,759,90,-255,-344,-986,
3158156330,6348,-13253,-7529,-562,1395,138,-261,-362,-986,
3158176319,4648,-10543,-6536,529,1480,-150,-237,-356,-986,
3158196308,6362,-11871,-8768,524,-1860,-165,-243,-368,-938,
3158216297,7424,-12698,-8495,-1223,-2755,-144,-237,-356,-950,
3158236286,6451,-11003,-11294,-1867,-2932,-208,-249,-350,-1023,
3158256275,5168,-10535,-11320,-1699,-2146,-85,-231,-344,-1107,
3158276264,4513,-10651,-10380,-1938,-1688,164,-226,-350,-1142,
3158296253,3542,-9569,-11198,-1757,-1964,320,-237,-362,-1203,
3158316242,2720,-8563,-12425,-1593,-2231,504,-202,-344,-1286,
3158336231,198,-7408,-12568,-1345,-2811,458,-184,-326,-1359,
3158356220,-59,-7318,-13246,-1788,-3207,641,-184,-326,-1407,
3158376209,3547,-9999,-16936,-2817,-1779,947,-166,-308,-1492,
3158396198,265,-6919,-16026,-2171,226,-11,-137,-308,-1540,
3158416187,-1412,-6292,-14929,-687,-106,-455,-125,-279,-1565,
3158436176,-76,-7110,-14551,-296,-70,-52,-137,-273,-1588,
3158456165,-35,-6707,-14247,-255,18,19,-143,-255,-1588,
3158476154,155,-6272,-14356,-510,-38,-122,-137,-273,-1648,
3158496143,444,-6213,-14635,-759,-53,-127,-137,-261,-1636,
3158516132,290,-6190,-14565,-841,-100,-243,-131,-243,-1600,
3158536121,99,-5270,-14424,-1072,-135,-367,-137,-249,-1636,
3158556110,-4116,-3164,-7827,-2456,-13,18,-125,-226,-1636,
3158576099,-520,4616,-3107,-9676,3,549,-137,-231,-1636,
3158596089,7747,1517,-16723,-3933,17,578,-137,-154,-1721,
3158616078,-2492,-1886,-16836,1312,-5,-370,-137,-95,-1757,
3158636067,-1748,-608,-15801,16,-4,-416,-137,-101,-1769,
3158656056,-369,-569,-15912,-100,-7,-214,-125,-107,-1746,
3158676045,-159,-363,-16011,39,-11,-117,-137,-83,-1757,
3158696034,-306,-60,-15933,13,4,-18,-125,-101,-1757,
3158716023,60,-588,-15959,2,10,4,-137,-83,-1734,
3158736012,15,-514,-15924,5,8,-4,-143,-95,-1769,
3158756001,-9,-503,-15993,5,8,-4,-137,-89,-1734,
3158775990,-2,-507,-15942,6,9,-4,-160,-72,-1721,
3158795979,8,-496,-15971,5,9,-4,-137,-101,-1757,
3158815968,27,-469,-15999,4,9,-4,-137,-95,-1732,
3158835957,98,-517,-16001,5,8,-4,-125,-83,-1732,
3158855946,46,-507,-15975,5,7,-4,-137,-89,-1721,
3158875935,-56,-503,-15962,6,5,-3,-143,-83,-1732,
3158895924,-103,-535,-15937,5,5,-4,-143,-89,-1744,
3158915913,-107,-567,-15902,3,7,-4,-125,-95,-1732,
3158935902,37,-576,-15976,3,10,-5,-137,-95,-1732,
3158955891,63,-487,-16010,3,7,-4,-131,-107,-1709,
3158975880,-64,-454,-15957,4,6,-4,-143,-95,-1732,
3158995869,-48,-531,-15944,4,7,-5,-131,-95,-1734,
3159015858,4,-538,-15965,4,10,-5,-125,-95,-1757,
3159035847,40,-525,-16011,3,10,-5,-131,-89,-1732,
3159055836,19,-480,-15985,5,8,-5,-131,-101,-1732,
3159075825,56,-487,-16009,5,8,-4,-137,-95,-1721,
3159095814,-10,-501,-15975,5,7,-4,-137,-101,-1757,
3159115803,-52,-522,-15964,4,7,-4,-149,-101,-1757,
3159135792,3,-521,-15951,4,9,-5,-137,-107,-1732,
3159155781,13,-512,-15986,5,8,-5,-125,-89,-1732,
3159175770,-32,-491,-15937,4,8,-4,-131,-95,-1732,
3159195759,14,-494,-15971,4,8,-4,-125,-95,-1732,
3159215748,21,-482,-16010,5,9,-4,-131,-101,-1734,
3159235737,11,-513,-15958,5,8,-4,-143,-83,-1746,
3159255726,5,-557,-15951,4,7,-4,-143,-89,-1757,
3159275715,10,-516,-15979,5,8,-4,-137,-77,-1757,
3159295704,-33,-478,-15974,4,9,-4,-131,-89,-1721,
3159315693,4,-509,-15974,4,8,-4,-125,-95,-1721,
3159335682,9,-538,-15980,4,8,-3,-131,-107,-1709,
3159355671,-25,-536,-15964,4,9,-4,-143,-95,-1757,
3159375660,-22,-486,-15940,3,9,-4,-137,-113,-1732,
3159395649,29,-492,-15982,4,8,-3,-137,-89,-1732,
3159415638,28,-508,-15999,5,8,-4,-131,-83,-1769,
3159435627,-24,-538,-15939,5,8,-4,-125,-95,-1746,
3159455616,-11,-509,-15966,5,8,-4,-131,-95,-1757,
3159475605,19,-479,-15993,4,8,-5,-149,-101,-1769,
3159495594,1,-506,-15997,4,8,-5,-131,-95,-1684,
3159515583,-14,-498,-15941,5,8,-4,-137,-101,-1746,
3159535572,9,-479,-15961,5,8,-4,-119,-101,-1769,
3159555561,10,-499,-15950,5,8,-5,-131,-95,-1757,
3159575550,-8,-535,-15953,4,8,-4,-137,-101,-1734,
3159595539,0,-515,-15988,4,8,-4,-137,-95,-1732,
3159615528,-5,-487,-15990,5,8,-5,-154,-101,-1709,
3159635517,-4,-527,-15972,5,8,-5,-131,-101,-1721,
3159655506,4,-529,-15968,4,7,-4,-131,-101,-1709,
3159675495,15,-507,-15972,5,7,-5,-137,-83,-1757,
3159695484,1,-479,-15979,5,8,-4,-143,-95,-1757,
3159715473,1,-479,-15948,4,9,-4,-125,-101,-1744,
3159735462,-7,-537,-15959,5,8,-5,-131,-95,-1746,
3159755451,11,-527,-15979,5,8,-4,-125,-101,-1769,
3159775440,-8,-475,-15970,5,8,-5,-125,-95,-1757,
3159795429,32,-486,-15967,4,8,-5,-149,-107,-1734,
3159815418,-6,-516,-15978,5,9,-4,-131,-95,-1709,
3159835407,-3,-515,-15981,5,9,-4,-131,-83,-1721,
3159855396,7,-504,-15956,5,8,-5,-149,-107,-1732,
3159875385,-17,-520,-15963,5,8,-4,-125,-95,-1734,
3159895374,-13,-525,-15963,4,7,-4,-149,-77,-1746,
3159915363,-16,-509,-15947,4,8,-4,-137,-95,-1746,
3159935352,-1,-487,-15996,5,9,-5,-149,-107,-1746,
3159955341,-10,-508,-15953,5,8,-4,-149,-95,-1746,
3159975330,-6,-515,-15959,4,8,-5,-143,-101,-1782,
3159995319,16,-501,-15978,5,9,-4,-131,-107,-1721,
3160015308,1,-500,-15982,4,9,-4,-149,-107,-1780,
3160035297,0,-516,-15966,5,7,-5,-137,-107,-1746,
3160055287,-15,-523,-15962,4,7,-4,-131,-89,-1721,
3160075276,2,-509,-15975,5,7,-5,-137,-101,-1732,
3160095265,-41,-473,-15976,5,8,-5,-143,-107,-1721,
3160115254,-4,-513,-15977,6,8,-4,-149,-107,-1732,
3160135243,0,-507,-15957,5,9,-4,-125,-95,-1757,
3160155232,4,-483,-15971,5,8,-4,-131,-77,-1734,
3160175221,2,-497,-15958,4,9,-3,-131,-89,-1744,
3160195210,-1,-506,-15955,4,8,-4,-154,-113,-1732,
3160215199,20,-493,-15964,5,8,-5,-137,-107,-1709,
3160235188,8,-500,-15942,4,8,-4,-143,-107,-1757,
3160255177,12,-496,-15949,5,8,-5,-125,-89,-1769,
3160275166,-34,-488,-15946,5,8,-5,-143,-83,-1732,
3160295155,-1,-529,-15938,6,9,-4,-125,-95,-1746,
3160315144,-14,-524,-15961,5,9,-4,-149,-119,-1746,
3160335133,-8,-506,-15947,5,9,-4,-119,-125,-1732,
3160355122,8,-493,-15974,5,8,-4,-143,-89,-1721,
3160375111,50,-507,-15999,5,8,-4,-149,-95,-1732,
3160395100,6,-528,-15953,5,9,-5,-149,-107,-1746,
3160415089,-13,-501,-15947,4,9,-4,-131,-89,-1732,
3160435078,5,-510,-15981,5,8,-4,-137,-107,-1732,
3160455067,-9,-539,-15949,5,8,-4,-131,-83,-1734,
3160475056,-8,-515,-15977,5,9,-4,-137,-95,-1769,
3160495045,32,-506,-15998,5,8,-5,-131,-89,-1757,
3160515034,-9,-507,-15954,5,8,-5,-125,-101,-1734,
3160535023,-14,-531,-15955,4,8,-4,-149,-101,-1744,
3160555012,27,-524,-15969,5,8,-5,-137,-89,-1757,
3160575001,-4,-510,-15973,5,9,-4,-143,-77,-1721,
3160594990,-7,-505,-15942,4,8,-4,-149,-107,-1721,
3160614979,-2,-505,-15936,5,8,-4,-131,-101,-1732,
3160634968,17,-505,-15966,6,8,-3,-143,-101,-1721,
3160654957,-16,-484,-15967,5,8,-4,-125,-101,-1734,
3160674946,4,-487,-15973,4,8,-5,-137,-113,-1734,
3160694935,26,-526,-15976,4,8,-5,-143,-113,-1757,
3160714924,9,-493,-15957,6,9,-5,-125,-125,-1732,
3160734913,0,-477,-15968,5,9,-4,-143,-95,-1769,
3160754902,30,-493,-15987,4,8,-5,-125,-95,-1746,
3160774891,-6,-507,-15964,4,7,-4,-131,-95,-1709,
3160794880,-34,-518,-15935,5,7,-4,-131,-107,-1709,
3160814869,26,-503,-15975,5,8,-4,-137,-89,-1721,
3160834858,3,-489,-15968,5,8,-4,-125,-89,-1721,
3160854847,-10,-522,-15954,5,8,-4,-143,-101,-1721,
3160874836,14,-522,-15976,5,8,-5,-125,-95,-1746,
3160894825,14,-512,-15968,5,8,-4,-137,-95,-1698,
3160914814,-52,-511,-15943,5,8,-5,-137,-107,-1732,
3160934803,0,-519,-16001,5,9,-5,-137,-95,-1732,
3160954792,27,-528,-15986,4,8,-4,-149,-113,-1746,
3160974781,-11,-513,-15961,5,8,-4,-137,-77,-1746,
3160994770,-25,-497,-15945,5,8,-4,-125,-119,-1721,
3161014759,19,-498,-15980,6,9,-4,-143,-101,-1721,
3161034748,-12,-516,-15974,6,9,-4,-137,-83,-1721,
3161054737,-23,-506,-15954,5,8,-5,-137,-89,-1732,
3161074726,24,-493,-15977,4,8,-4,-149,-95,-1732,
3161094715,-4,-475,-15953,5,8,-4,-137,-101,-1746,
3161114704,-1,-501,-15982,5,8,-4,-131,-107,-1769,
3161134693,4,-533,-15985,5,8,-4,-149,-107,-1782,
3161154682,-17,-500,-15973,5,8,-4,-131,-101,-1757,
3161174671,-11,-500,-15966,6,8,-5,-137,-77,-1782,
3161194660,3,-522,-15968,5,9,-5,-137,-95,-1721,
3161214649,-6,-519,-15954,4,8,-5,-113,-101,-1721,
3161234638,-9,-496,-15936,4,8,-5,-131,-107,-1721,
3161254627,-4,-501,-15965,5,8,-5,-143,-107,-1757,
3161274616,-11,-519,-15974,5,8,-4,-143,-95,-1757,
3161294605,7,-525,-15973,5,8,-5,-125,-107,-1746,
3161314594,3,-502,-15973,5,8,-5,-149,-101,-1732,
3161334583,-14,-503,-15998,4,8,-5,-143,-107,-1709,
3161354572,-17,-499,-15951,4,8,-4,-137,-107,-1732,
3161374561,18,-507,-15960,5,8,-4,-154,-113,-1732,
3161394550,3,-520,-15967,5,8,-4,-131,-107,-1746,
3161414539,-27,-527,-15961,5,9,-3,-143,-95,-1746,
3161434528,3,-490,-15935,4,9,-4,-137,-95,-1721,
3161454517,-5,-515,-15979,5,9,-4,-131,-101,-1757,
3161474506,-7,-550,-15961,4,9,-4,-137,-95,-1769,
3161494495,-9,-515,-15969,5,8,-4,-131,-89,-1757,
3161514485,10,-501,-15971,5,8,-4,-125,-101,-1757,
3161534474,-4,-514,-15969,4,8,-4,-131,-113,-1757,
3161554463,-9,-525,-15977,4,9,-5,-143,-101,-1744,
3161574452,-2,-493,-15999,4,9,-4,-125,-95,-1757,
3161594441,6,-472,-15981,5,8,-4,-125,-89,-1721,
3161614430,-31,-490,-15980,6,8,-5,-143,-101,-1732,
3161634419,9,-533,-15976,5,8,-4,-149,-107,-1757,
3161654408,-5,-505,-15971,5,8,-4,-125,-95,-1746,
3161674397,-6,-495,-15963,5,8,-4,-119,-95,-1746,
3161694386,8,-520,-15963,5,8,-4,-131,-107,-1721,
3161714375,0,-517,-15971,5,8,-5,-149,-101,-1709,
3161734364,-14,-496,-15952,4,9,-5,-143,-101,-1721,
3161754353,-14,-498,-15959,4,8,-4,-137,-95,-1721,
3161774342,-8,-510,-15961,5,8,-4,-149,-101,-1746,
3161794331,-1,-526,-15967,5,8,-4,-125,-107,-1721,
3161814320,-7,-525,-15969,5,8,-5,-143,-95,-1746,
3161834309,26,-489,-15947,4,8,-5,-125,-95,-1709,
3161854298,11,-484,-15986,5,8,-4,-125,-89,-1746,
3161874287,-32,-497,-15935,4,9,-5,-125,-107,-1757,
3161894276,5,-509,-15979,5,9,-4,-125,-101,-1746,
3161914265,15,-495,-15990,5,8,-2,-143,-101,-1721,
3161934254,-12,-508,-15967,5,8,-4,-137,-101,-1746,
3161954243,17,-498,-15956,4,8,-6,-143,-83,-1721,
3161974232,7,-504,-15945,4,9,-5,-149,-95,-1721,
3161994221,-17,-506,-15950,4,8,-4,-137,-83,-1746,
3162014210,-13,-487,-15965,5,8,-4,-137,-89,-1721,
3162034199,0,-493,-15949,5,8,-4,-137,-101,-1721,
3162054188,7,-503,-15956,5,9,-4,-149,-95,-1721,
3162074177,-7,-518,-15963,5,8,-4,-149,-89,-1721,
3162094166,-8,-495,-15973,6,9,-5,-137,-83,-1746,
3162114155,0,-480,-15974,6,9,-4,-149,-95,-1698,
3162134144,-6,-516,-15966,5,8,-4,-131,-107,-1757,
3162154133,-12,-522,-15953,5,9,-5,-113,-89,-1732,
3162174122,14,-484,-15947,5,8,-4,-149,-95,-1746,
3162194111,-4,-495,-15952,5,8,-5,-149,-101,-1757,
3162214100,1,-493,-15986,5,8,-4,-143,-107,-1744,
3162234089,-2,-490,-15955,6,9,-3,-137,-107,-1732,
3162254078,10,-495,-15967,5,8,-4,-125,-95,-1746,
3162274067,27,-507,-15968,5,8,-4,-154,-101,-1721,
3162294056,-2,-499,-15954,5,9,-4,-137,-101,-1757,
3162314045,-7,-497,-15963,5,8,-4,-143,-101,-1709,
3162334034,10,-484,-15963,6,8,-4,-137,-95,-1721,
3162354023,17,-485,-15964,5,9,-4,-131,-95,-1757,
3162374012,5,-529,-15965,4,9,-4,-137,-119,-1698,
3162394001,-16,-490,-15962,4,8,-5,-125,-101,-1734,
3162413990,-4,-501,-15984,4,8,-4,-125,-95,-1746,
3162433979,4,-497,-15955,6,8,-5,-137,-101,-1709,
3162453968,-11,-496,-15957,5,9,-4,-137,-101,-1721,
3162473957,4,-507,-15968,5,8,-3,-149,-95,-1721,
3162493946,10,-514,-15965,5,9,-4,-131,-95,-1746,
3162513935,1,-482,-15937,5,8,-4,-149,-113,-1757,
3162533924,-7,-492,-15981,5,8,-4,-143,-95,-1698,
3162553913,-8,-506,-15998,5,9,-4,-154,-95,-1709,
3162573902,-27,-498,-15969,5,8,-4,-131,-95,-1757,
3162593891,-14,-514,-15981,4,8,-4,-149,-95,-1721,
3162613880,13,-490,-15958,5,9,-5,-131,-89,-1734,
3162633869,6,-505,-15971,5,9,-4,-149,-101,-1721,
3162653858,-37,-506,-15973,5,8,-4,-131,-95,-1709,
3162673847,-22,-471,-15978,4,7,-3,-131,-95,-1734,
3162693836,25,-520,-15984,4,8,-4,-137,-101,-1746,
3162713825,-4,-510,-15976,5,8,-4,-131,-107,-1769,
3162733814,7,-471,-15950,4,9,-6,-137,-89,-1721,
3162753803,42,-506,-15949,5,9,-4,-131,-107,-1746,
3162773792,13,-537,-15944,5,8,-3,-137,-83,-1732,
3162793781,-14,-516,-15956,5,8,-4,-143,-107,-1721,
3162813770,-22,-487,-15976,4,8,-5,-131,-113,-1757,
3162833759,-26,-496,-15995,4,9,-5,-149,-89,-1746,
3162853748,-6,-509,-15972,5,8,-3,-149,-113,-1732,
3162873737,-32,-513,-15954,6,7,-4,-137,-95,-1746,
3162893726,-6,-498,-15982,5,9,-4,-119,-107,-1746,
3162913715,-27,-480,-15962,4,8,-5,-149,-95,-1709,
3162933704,-10,-500,-15961,5,9,-5,-131,-101,-1734,
3162953693,23,-541,-15962,4,8,-5,-125,-101,-1757,
3162973683,-2,-516,-15986,5,8,-4,-149,-77,-1769,
3162993672,-21,-482,-15967,5,9,-4,-143,-101,-1698,
3163013661,-8,-488,-15952,5,8,-5,-125,-95,-1757,
3163033650,-8,-539,-15980,5,8,-4,-137,-95,-1709,
3163053639,-36,-522,-15959,6,9,-4,-143,-77,-1734,
3163073628,-13,-489,-15952,5,8,-4,-137,-95,-1746,
3163093617,-6,-495,-15966,4,7,-4,-143,-83,-1709,
3163113606,4,-515,-15998,4,8,-5,-125,-101,-1721,
3163133595,-8,-518,-15981,5,8,-5,-137,-95,-1780,
3163153584,-11,-520,-15969,5,9,-4,-125,-95,-1746,
3163173573,-20,-515,-15959,5,9,-5,-131,-95,-1721,
3163193562,-19,-518,-15966,4,9,-5,-131,-113,-1709,
3163213551,6,-499,-15970,4,8,-4,-131,-89,-1721,
3163233540,2,-499,-15983,5,7,-4,-143,-101,-1721,
3163253529,-23,-509,-15972,5,9,-4,-137,-125,-1709,
3163273518,21,-515,-15987,3,9,-4,-125,-95,-1757,
3163293507,10,-519,-15970,4,7,-5,-137,-113,-1734,
3163313496,-44,-490,-15953,5,8,-4,-137,-95,-1721,
3163333485,-16,-483,-15961,5,9,-4,-137,-113,-1721,
3163353474,46,-514,-15958,5,8,-4,-137,-95,-1734,
3163373463,8,-549,-15970,6,8,-4,-131,-95,-1732,
3163393452,-39,-488,-15957,5,9,-4,-125,-95,-1746,
3163413441,5,-506,-15997,5,8,-4,-143,-89,-1746,
3163433430,2,-533,-15992,4,8,-4,-137,-107,-1721,
3163453419,-36,-502,-15957,4,7,-3,-131,-83,-1721,
3163473408,27,-507,-15980,5,8,-3,-131,-89,-1721,
3163493397,5,-500,-15962,5,8,-4,-143,-83,-1734,
3163513386,-33,-509,-15971,5,8,-3,-143,-95,-1721,
3163533375,-30,-515,-15963,3,8,-4,-125,-113,-1746,
3163553364,1,-476,-15972,4,9,-5,-131,-101,-1757,
3163573353,7,-497,-15990,5,8,-4,-143,-101,-1757,
3163593342,-24,-515,-15959,6,8,-4,-125,-101,-1734,
3163613331,1,-503,-15954,5,9,-4,-131,-95,-1721,
3163633320,2,-508,-15964,4,9,-4,-131,-95,-1721,
3163653309,-7,-500,-15974,4,8,-4,-149,-89,-1746,
3163673298,-15,-510,-15989,5,8,-4,-131,-89,-1721,
3163693287,3,-508,-15990,5,8,-4,-131,-101,-1734,
3163713276,0,-500,-15974,5,8,-4,-137,-95,-1746,
3163733265,-16,-521,-15985,5,8,-4,-131,-107,-1732,
3163753254,-11,-502,-15976,4,9,-4,-137,-101,-1732,
3163773243,10,-492,-15982,5,9,-5,-131,-101,-1769,
3163793232,18,-486,-15965,5,8,-4,-137,-107,-1746,
3163813221,-22,-495,-15941,5,8,-4,-143,-83,-1732,
3163833210,11,-500,-15981,5,9,-5,-125,-89,-1732,
3163853199,-4,-501,-15964,6,8,-4,-119,-89,-1734,
3163873188,-12,-501,-15974,6,8,-3,-137,-95,-1721,
3163893177,9,-526,-15954,5,9,-4,-125,-89,-1721,
3163913166,3,-529,-15964,5,9,-4,-125,-95,-1782,
3163933155,-1,-513,-15972,5,8,-4,-125,-83,-1757,
3163953144,-18,-505,-15978,5,8,-5,-137,-101,-1746,
3163973133,-1,-490,-15968,5,8,-4,-149,-95,-1746,
3163993122,7,-513,-15966,5,8,-4,-125,-83,-1746,
3164013111,-1,-533,-15988,5,7,-3,-137,-101,-1721,
3164033100,-35,-499,-15932,5,7,-4,-143,-101,-1769,
3164053089,3,-473,-15965,5,8,-4,-125,-89,-1734,
3164073078,38,-523,-15975,5,8,-5,-131,-95,-1757,
3164093067,2,-516,-15958,5,7,-4,-125,-107,-1746,
3164113056,1,-503,-15972,5,8,-4,-143,-101,-1757,
3164133045,19,-484,-15992,5,8,-4,-137,-101,-1732,
3164153034,-11,-513,-15974,5,8,-3,-131,-89,-1734,
3164173023,-9,-520,-15966,5,8,-4,-137,-95,-1746,
3164193012,16,-496,-15970,5,8,-5,-131,-95,-1684,
3164213001,0,-493,-15972,4,8,-4,-125,-95,-1746,
3164232990,-14,-509,-15964,5,8,-3,-137,-77,-1684,
3164252979,21,-526,-15962,3,9,-3,-131,-89,-1746,
3164272968,6,-494,-16004,5,9,-4,-131,-95,-1746,
3164292957,-29,-498,-15989,5,9,-4,-137,-89,-1746,
3164312946,8,-522,-15985,5,9,-5,-131,-101,-1732,
3164332935,7,-544,-15962,5,8,-5,-125,-89,-1757,
3164352924,-5,-510,-15967,5,8,-4,-137,-101,-1721,
3164372913,8,-486,-15982,5,8,-4,-160,-89,-1721,
3164392902,-8,-506,-15993,6,8,-3,-131,-95,-1732,
3164412891,-1,-531,-15972,5,8,-4,-131,-101,-1734,
3164432881,-19,-482,-15949,4,9,-4,-137,-95,-1709,
3164452870,6,-497,-15995,5,8,-4,-149,-95,-1746,
3164472859,-5,-502,-15972,4,8,-4,-119,-89,-1734,
3164492848,-3,-518,-15981,4,8,-4,-149,-89,-1734,
3164512837,14,-515,-15985,5,8,-4,-125,-107,-1721,
3164532826,2,-513,-15961,5,7,-5,-143,-95,-1757,
3164552815,-9,-516,-15974,4,8,-4,-125,-89,-1746,
3164572804,19,-530,-15989,4,8,-3,-113,-89,-1757,
3164592793,3,-495,-15952,4,8,-4,-119,-95,-1721,
3164612782,-19,-489,-15980,5,8,-4,-143,-101,-1721,
3164632771,26,-533,-15983,5,9,-5,-137,-95,-1709,
3164652760,4,-540,-15959,5,8,-4,-137,-95,-1734,
3164672749,-8,-518,-15975,5,8,-3,-125,-83,-1734,
3164692738,4,-493,-16013,5,8,-3,-125,-95,-1746,
3164712727,33,-542,-15971,5,7,-4,-125,-95,-1734,
3164732716,-31,-516,-15960,5,8,-4,-131,-101,-1732,
3164752705,8,-481,-15969,4,9,-4,-125,-95,-1721,
3164772694,17,-490,-15974,4,8,-4,-143,-95,-1709,
3164792683,-24,-542,-15977,4,8,-3,-131,-95,-1734,
3164812672,-15,-523,-15958,4,9,-4,-131,-95,-1757,
3164832661,22,-485,-15995,6,8,-4,-143,-95,-1746,
3164852650,2,-498,-15969,6,7,-5,-125,-89,-1746,
3164872639,-21,-515,-15949,5,8,-5,-131,-95,-1721,
3164892628,10,-512,-15953,6,8,-5,-137,-95,-1734,
3164912617,-17,-498,-15975,5,8,-4,-143,-101,-1721,
3164932606,-16,-490,-15974,5,8,-4,-131,-101,-1771,
3164952595,7,-523,-15969,4,8,-4,-137,-77,-1732,
3164972584,18,-513,-15968,4,8,-4,-131,-95,-1709,
3164992573,-10,-520,-15980,4,9,-4,-137,-77,-1732,
3165012562,0,-509,-15987,5,8,-4,-125,-89,-1769,
3165032551,6,-512,-15978,5,9,-4,-143,-95,-1746,
3165052540,-11,-519,-15962,4,8,-4,-137,-101,-1709,
3165072529,9,-517,-15954,4,8,-4,-125,-89,-1734,
3165092518,8,-490,-15981,4,8,-4,-137,-95,-1780,
3165112507,-12,-505,-15954,5,7,-3,-131,-101,-1746,
3165132496,-4,-527,-15969,5,8,-4,-125,-95,-1757,
3165152485,15,-508,-15993,5,9,-4,-137,-95,-1734,
3165172474,-17,-486,-15962,5,8,-3,-143,-89,-1746,
3165192463,-6,-509,-15981,4,8,-5,-137,-113,-1734,
3165212452,-4,-514,-15973,5,8,-4,-137,-89,-1721,
3165232441,-17,-500,-15973,5,8,-4,-143,-95,-1734,
3165252430,-5,-512,-15954,3,9,-4,-143,-89,-1757,
3165272419,2,-524,-15986,5,8,-4,-131,-101,-1732,
3165292408,-2,-514,-15962,4,8,-4,-119,-72,-1734,
3165312397,-14,-504,-15938,4,7,-4,-137,-83,-1698,
3165332386,-25,-484,-15955,6,8,-5,-125,-95,-1698,
3165352375,2,-507,-15989,4,8,-4,-125,-101,-1709,
3165372364,-11,-525,-15968,4,8,-4,-119,-101,-1757,
3165392353,-10,-500,-15958,5,8,-4,-131,-83,-1734,
3165412342,40,-501,-15981,4,8,-5,-125,-95,-1721,
3165432331,-13,-505,-15968,5,8,-5,-137,-89,-1721,
3165452320,-15,-509,-15970,4,8,-4,-131,-95,-1746,
3165472309,12,-515,-15995,5,8,-5,-137,-101,-1709,
3165492298,-2,-512,-15961,5,8,-5,-137,-72,-1757,
3165512287,-5,-494,-15964,5,8,-4,-149,-83,-1734,
3165532276,6,-491,-15981,5,8,-4,-143,-113,-1746,
3165552265,24,-485,-15961,5,9,-3,-143,-89,-1757,
3165572254,1,-501,-15970,4,8,-3,-131,-77,-1721,
3165592243,-28,-495,-15952,4,7,-5,-131,-83,-1757,
3165612232,4,-510,-15991,6,7,-4,-143,-89,-1734,
3165632221,-4,-500,-15969,4,8,-4,-149,-95,-1698,
3165652210,-25,-488,-15963,4,8,-4,-137,-95,-1721,
3165672199,-2,-505,-15976,5,7,-5,-143,-89,-1746,
3165692188,-14,-500,-15955,5,7,-4,-125,-95,-1757,
3165712177,-16,-489,-15961,4,8,-4,-137,-89,-1732,
3165732166,-4,-510,-15981,4,9,-4,-143,-89,-1721,
3165752155,9,-500,-15954,4,9,-5,-125,-89,-1746,
3165772144,-24,-483,-15947,5,8,-4,-125,-107,-1709,
3165792133,37,-521,-15962,5,8,-4,-131,-101,-1734,
3165812122,-16,-495,-15977,5,8,-4,-125,-95,-1721,
3165832111,-26,-511,-15959,5,8,-4,-143,-107,-1746,
3165852100,14,-513,-15977,4,9,-4,-113,-95,-1757,
3165872089,-5,-525,-15966,4,8,-5,-143,-83,-1721,
3165892079,-22,-521,-15953,3,8,-4,-125,-89,-1757,
3165912068,-11,-496,-15967,4,8,-4,-125,-77,-1746,
3165932057,12,-490,-15962,5,9,-5,-125,-95,-1734,
3165952046,5,-498,-15976,5,8,-5,-137,-107,-1746,
3165972035,17,-508,-15985,5,8,-4,-131,-95,-1780,
3165992024,1,-497,-15979,5,8,-4,-131,-77,-1709,
3166012013,-14,-511,-15979,4,8,-5,-125,-89,-1721,
3166032002,-17,-504,-15957,5,8,-5,-119,-83,-1734,
3166051991,-4,-517,-15966,5,8,-4,-131,-95,-1721,
3166071980,4,-509,-15964,4,8,-4,-137,-101,-1734,
3166091969,1,-486,-15980,3,8,-4,-137,-95,-1734,
3166111958,22,-533,-15988,5,8,-4,-131,-95,-1746,
3166131947,-17,-525,-15966,5,8,-5,-137,-95,-1746,
3166151936,11,-493,-15957,5,8,-4,-143,-83,-1746,
3166171925,6,-521,-15979,5,8,-4,-131,-89,-1721,
3166191914,-34,-520,-15978,4,8,-3,-137,-83,-1746,
3166211903,-17,-501,-15992,5,8,-5,-143,-89,-1734,
3166231892,3,-484,-15981,5,8,-5,-131,-83,-1746,
3166251881,-11,-493,-15965,4,8,-4,-137,-89,-1757,
3166271870,-4,-510,-15976,5,8,-4,-137,-101,-1757,
3166291859,-27,-497,-15976,6,7,-4,-137,-89,-1746,
3166311848,9,-479,-15971,3,8,-3,-131,-89,-1734,
3166331837,24,-493,-15998,4,9,-4,-131,-95,-1746,
3166351826,-14,-532,-15985,5,9,-4,-131,-101,-1709,
3166371815,-13,-501,-15973,4,7,-5,-137,-89,-1769,
3166391804,-25,-484,-15949,4,7,-5,-131,-101,-1757,
3166411793,1,-496,-15987,4,8,-4,-113,-95,-1734,
3166431782,-2,-524,-15984,5,8,-5,-125,-77,-1746,
3166451771,-7,-491,-15977,5,8,-4,-137,-95,-1709,
3166471760,10,-476,-15977,5,8,-4,-137,-107,-1746,
3166491749,11,-513,-15988,6,8,-4,-137,-95,-1709,
3166511738,-3,-525,-15971,4,8,-5,-131,-83,-1757,
3166531727,-3,-494,-15982,4,8,-5,-131,-83,-1721,
3166551716,1,-497,-15985,5,8,-4,-131,-101,-1771,
3166571705,-17,-529,-15965,5,8,-4,-131,-83,-1746,
3166591694,10,-535,-15959,4,9,-5,-137,-89,-1721,
3166611683,28,-502,-15982,5,9,-4,-125,-95,-1757,
3166631672,-1,-481,-15985,4,9,-5,-131,-95,-1721,
3166651661,-8,-511,-15992,4,8,-4,-131,-95,-1698,
3166671650,7,-514,-15977,5,8,-4,-131,-113,-1771,
3166691639,6,-488,-15995,7,8,-4,-125,-101,-1734,
3166711628,-14,-490,-15965,5,8,-4,-131,-83,-1769,
3166731617,15,-511,-15992,5,9,-5,-137,-83,-1746,
3166751606,20,-532,-15981,5,8,-4,-137,-107,-1746,
3166771595,-24,-518,-15951,5,8,-4,-137,-101,-1734,
3166791584,23,-501,-15986,4,8,-5,-119,-83,-1757,
3166811573,30,-524,-15999,5,8,-3,-113,-95,-1721,
3166831562,-14,-513,-15953,5,7,-5,-131,-95,-1734,
3166851551,-6,-502,-15964,5,8,-4,-149,-89,-1746,
3166871540,9,-524,-15988,4,8,-4,-131,-101,-1734,
3166891529,2,-526,-15978,5,7,-4,-125,-107,-1746,
3166911518,-8,-512,-15947,5,9,-4,-143,-101,-1771,
3166931507,11,-487,-15987,6,8,-4,-143,-83,-1757,
3166951496,-18,-482,-15978,6,8,-4,-119,-89,-1746,
3166971485,-25,-524,-15955,4,9,-4,-131,-95,-1698,
3166991474,1,-492,-15958,4,9,-5,-131,-101,-1782,
3167011463,17,-470,-15971,5,8,-4,-131,-101,-1757,
3167031452,-19,-496,-15959,5,8,-5,-125,-101,-1757,
3167051441,-16,-520,-15963,5,9,-4,-131,-89,-1709,
3167071430,5,-485,-15980,5,9,-4,-143,-83,-1746,
3167091419,-5,-509,-15977,5,8,-4,-125,-83,-1734,
3167111408,-22,-523,-15968,3,8,-4,-119,-95,-1757,
3167131397,-12,-486,-15980,4,8,-4,-131,-89,-1721,
3167151386,1,-487,-15969,5,7,-4,-137,-89,-1769,
3167171375,9,-519,-15970,5,9,-4,-131,-107,-1746,
3167191364,-4,-514,-15988,3,9,-5,-137,-107,-1734,
3167211353,1,-490,-15960,5,8,-5,-131,-89,-1721,
3167231342,-8,-496,-15961,5,8,-4,-137,-89,-1721,
3167251331,6,-526,-15980,5,8,-4,-143,-95,-1746,
3167271320,-2,-511,-15965,5,8,-5,-131,-107,-1732,
3167291309,-2,-494,-15962,5,8,-5,-131,-107,-1746,
3167311298,-6,-505,-15977,5,8,-3,-143,-101,-1746,
3167331287,-3,-525,-15971,4,8,-3,-137,-89,-1721,
3167351276,12,-507,-15981,3,8,-4,-143,-83,-1721,
3167371266,1,-492,-15991,5,8,-4,-125,-89,-1746,
3167391255,13,-510,-15991,5,8,-4,-125,-107,-1746,
3167411244,-19,-503,-15954,5,8,-4,-137,-95,-1734,
3167431233,-13,-487,-15978,6,8,-5,-143,-83,-1757,
3167451222,11,-484,-15985,4,8,-3,-137,-101,-1769,
3167471211,9,-513,-15962,5,7,-3,-125,-107,-1757,
3167491200,-3,-515,-15987,4,8,-5,-137,-95,-1746,
3167511189,4,-514,-15976,5,9,-4,-143,-89,-1746,
3167531178,10,-506,-15938,4,8,-4,-131,-95,-1746,
3167551167,-20,-531,-15964,4,7,-3,-143,-95,-1746,
3167571156,-12,-511,-15969,3,8,-5,-131,-89,-1746,
3167591145,19,-499,-15979,4,8,-4,-119,-95,-1721,
3167611134,-9,-506,-15979,5,8,-4,-131,-107,-1732,
3167631123,-20,-510,-15980,4,8,-4,-131,-89,-1746,
3167651112,17,-526,-15976,4,8,-4,-131,-83,-1721,
3167671101,6,-514,-15978,4,7,-4,-119,-95,-1734,
3167691090,-10,-502,-15980,4,8,-4,-149,-83,-1732,
3167711079,22,-510,-15988,4,9,-4,-137,-101,-1734,
3167731068,-11,-521,-15968,5,8,-4,-131,-95,-1734,
3167751057,-13,-501,-15965,5,8,-5,-143,-89,-1746,
3167771046,-10,-463,-15985,5,8,-5,-131,-83,-1734,
3167791035,0,-484,-15977,5,9,-5,-131,-101,-1746,
3167811024,-18,-501,-15970,5,9,-5,-125,-89,-1734,
3167831013,-14,-490,-15966,5,8,-5,-137,-107,-1746,
3167851002,-1,-482,-15989,4,8,-4,-119,-107,-1734,
3167870991,-4,-497,-15961,5,9,-4,-137,-95,-1757,
3167890980,2,-508,-16006,4,8,-4,-131,-95,-1734,
3167910969,9,-498,-15991,5,9,-4,-137,-101,-1757,
3167930958,-4,-493,-15989,4,8,-4,-137,-89,-1757,
3167950947,-10,-480,-15976,4,8,-4,-131,-89,-1746,
3167970936,1,-508,-15972,4,9,-5,-137,-107,-1734,
3167990925,11,-515,-15971,4,7,-4,-131,-95,-1721,
3168010914,-23,-473,-15962,4,8,-4,-125,-95,-1734,
3168030903,13,-477,-15980,5,8,-3,-131,-95,-1734,
3168050892,-32,-498,-15941,5,8,-5,-137,-83,-1723,
3168070881,-26,-489,-15963,5,8,-4,-131,-95,-1734,
3168090870,-7,-501,-15984,5,8,-3,-137,-95,-1721,
3168110859,-4,-489,-15970,4,8,-4,-113,-95,-1746,
3168130848,11,-493,-15988,4,8,-4,-143,-89,-1734,
3168150837,-6,-514,-15982,5,9,-4,-143,-95,-1757,
3168170826,10,-504,-15956,5,8,-4,-131,-89,-1721,
3168190815,-6,-475,-15979,5,8,-4,-131,-89,-1709,
3168210804,-17,-489,-15957,4,8,-4,-131,-72,-1782,
3168230793,-1,-513,-15972,4,8,-3,-143,-107,-1721,
3168250782,0,-521,-15986,5,8,-5,-119,-101,-1721,
3168270771,2,-500,-15992,5,9,-4,-137,-95,-1709,
3168290760,-27,-509,-15967,4,8,-5,-137,-95,-1734,
3168310749,-15,-512,-15976,4,7,-4,-125,-95,-1734,
3168330738,10,-494,-15990,5,9,-4,-119,-95,-1709,
3168350727,0,-506,-15992,5,8,-4,-125,-89,-1746,
3168370716,-27,-478,-15978,4,8,-5,-143,-89,-1746,
3168390705,12,-521,-15997,5,8,-4,-143,-83,-1746,
3168410694,14,-516,-15963,5,8,-4,-131,-113,-1732,
3168430683,-7,-500,-15970,4,7,-4,-131,-89,-1734,
3168450672,11,-504,-15952,5,8,-5,-131,-89,-1721,
3168470661,28,-503,-15993,5,8,-4,-149,-95,-1734,
3168490650,17,-533,-15972,4,8,-4,-143,-89,-1721,
3168510639,6,-514,-15981,4,8,-4,-137,-89,-1721,
3168530628,8,-518,-15986,4,9,-5,-131,-95,-1721,
3168550617,-14,-494,-15979,4,9,-5,-149,-95,-1734,
3168570606,-23,-523,-15971,5,8,-4,-125,-95,-1709,
3168590595,-11,-513,-15977,5,9,-3,-131,-77,-1721,
3168610584,11,-499,-15979,4,8,-4,-137,-89,-1771,
3168630573,-16,-520,-15961,6,8,-4,-131,-107,-1734,
3168650562,-9,-519,-15965,5,8,-4,-137,-101,-1721,
3168670551,21,-517,-15982,4,8,-4,-143,-101,-1746,
3168690540,18,-523,-15988,4,8,-4,-125,-95,-1734,
3168710529,-3,-504,-15969,5,8,-4,-125,-95,-1709,
3168730518,-4,-486,-15975,5,8,-4,-137,-101,-1721,
3168750507,32,-506,-15961,6,8,-4,-131,-119,-1757,
3168770496,1,-498,-15988,5,8,-4,-149,-95,-1734,
3168790485,7,-487,-15977,4,8,-3,-131,-83,-1757,
3168810474,5,-468,-15987,4,9,-5,-125,-101,-1734,
3168830464,14,-513,-15968,5,9,-5,-137,-89,-1721,
3168850453,7,-541,-15977,5,8,-4,-137,-95,-1734,
3168870442,5,-499,-15964,4,7,-5,-119,-77,-1734,
3168890431,-28,-475,-15965,4,8,-6,-137,-95,-1782,
3168910420,19,-500,-15994,4,9,-5,-131,-83,-1721,
3168930409,-3,-517,-15986,4,8,-4,-125,-77,-1734,
3168950398,-8,-531,-15973,5,8,-4,-137,-113,-1757,
3168970387,11,-508,-15955,4,8,-5,-149,-95,-1746,
3168990376,12,-521,-15967,5,8,-4,-119,-95,-1780,
3169010365,13,-511,-15980,4,8,-4,-131,-107,-1757,
3169030354,-1,-492,-15968,5,8,-4,-131,-101,-1757,
3169050343,14,-491,-15955,5,8,-4,-131,-83,-1746,
3169070332,3,-529,-15961,4,8,-4,-149,-89,-1721,
3169090321,6,-546,-16002,5,8,-5,-143,-101,-1746,
3169110310,-4,-478,-15996,5,9,-4,-131,-95,-1746,
3169130299,3,-491,-15990,6,8,-4,-125,-89,-1698,
3169150288,3,-525,-15955,4,8,-4,-131,-95,-1746,
3169170277,2,-555,-15991,4,8,-4,-131,-95,-1709,
3169190266,-18,-504,-15979,5,8,-4,-119,-101,-1746,
3169210255,14,-482,-15994,5,8,-4,-137,-89,-1746,
3169230244,11,-506,-16003,5,8,-4,-137,-89,-1734,
3169250233,-13,-513,-15942,4,9,-4,-131,-95,-1746,
3169270222,4,-515,-15955,6,8,-4,-131,-95,-1769,
3169290211,0,-505,-15987,5,7,-4,-131,-101,-1746,
3169310200,4,-523,-16013,6,8,-4,-143,-107,-1721,
3169330189,-19,-523,-15961,5,8,-4,-137,-89,-1757,
3169350178,2,-507,-15990,5,8,-4,-137,-107,-1757,
3169370167,27,-502,-15970,4,7,-5,-137,-95,-1746,
3169390156,-47,-510,-15975,4,8,-4,-119,-95,-1734,
3169410145,58,-534,-15986,5,8,-4,-125,-101,-1709,
3169430134,-30,-482,-15985,6,8,-5,-137,-89,-1769,
3169450123,0,-496,-15956,5,9,-4,-137,-95,-1686,
3169470112,-12,-535,-15969,5,9,-5,-137,-95,-1746,
3169490101,5,-529,-15966,5,9,-5,-131,-83,-1698,
3169510090,-35,-494,-15990,5,8,-4,-125,-101,-1782,
3169530079,5,-513,-15971,5,8,-4,-125,-83,-1746,
3169550068,9,-510,-16012,5,7,-4,-125,-83,-1721,
3169570057,-35,-513,-15969,5,8,-4,-137,-107,-1746,
3169590046,9,-509,-15977,5,8,-4,-125,-83,-1721,
3169610035,-9,-507,-15991,5,7,-5,-131,-107,-1732,
3169630024,-8,-498,-15963,4,7,-4,-137,-101,-1709,
3169650013,-11,-504,-15974,5,9,-4,-125,-83,-1757,
3169670002,13,-515,-15998,5,9,-4,-149,-89,-1721,
3169689991,-31,-476,-15972,4,9,-5,-131,-83,-1721,
3169709980,25,-493,-15965,4,9,-5,-149,-95,-1709,
3169729969,18,-532,-15992,4,9,-4,-143,-101,-1757,
3169749958,-17,-500,-15955,5,8,-3,-137,-95,-1732,
3169769947,-1,-470,-15987,5,8,-4,-125,-101,-1734,
3169789936,17,-517,-16000,6,8,-5,-113,-89,-1734,
3169809925,-19,-512,-15963,5,8,-5,-137,-95,-1757,
3169829914,-7,-482,-15961,5,9,-5,-131,-77,-1709,
3169849903,20,-472,-15989,5,8,-4,-119,-95,-1698,
3169869892,-18,-503,-15975,5,7,-4,-137,-95,-1721,
3169889881,-15,-532,-15989,4,8,-4,-137,-89,-1734,
3169909870,1,-492,-15998,5,9,-4,-125,-95,-1746,
3169929859,2,-476,-15967,5,8,-5,-125,-89,-1757,
3169949848,-30,-507,-15950,4,9,-4,-131,-107,-1698,
3169969837,4,-511,-15954,5,8,-4,-113,-101,-1732,
3169989826,6,-484,-16010,5,9,-4,-143,-95,-1746,
3170009815,6,-497,-15975,5,8,-4,-131,-83,-1757,
3170029804,10,-515,-15947,5,8,-4,-119,-95,-1734,
3170049793,16,-530,-15997,5,8,-4,-125,-95,-1698,
3170069782,-5,-509,-15994,5,8,-5,-149,-107,-1746,
3170089771,-22,-504,-15965,5,8,-4,-143,-101,-1746,
3170109760,-7,-524,-15986,5,8,-4,-137,-83,-1698,
3170129749,13,-494,-16006,5,8,-4,-154,-101,-1734,
3170149738,21,-489,-15966,5,9,-4,-143,-101,-1757,
3170169727,-34,-508,-15959,5,8,-4,-119,-101,-1734,
3170189716,14,-501,-16001,5,8,-4,-131,-89,-1734,
3170209705,-5,-507,-15957,5,8,-4,-137,-89,-1769,
3170229694,-14,-500,-15947,5,8,-4,-125,-107,-1746,
3170249683,-13,-495,-15972,5,9,-5,-131,-101,-1734,
3170269672,14,-525,-15988,5,9,-4,-137,-107,-1757,
3170289662,-9,-532,-15970,6,8,-3,-125,-107,-1757,
3170309651,2,-490,-15961,5,8,-5,-125,-95,-1734,
3170329640,14,-478,-15961,4,8,-4,-137,-95,-1757,
3170349629,-17,-504,-15976,4,8,-5,-143,-83,-1698,
3170369618,-16,-544,-15996,5,8,-5,-113,-95,-1746,
3170389607,-18,-499,-15973,5,8,-5,-131,-89,-1734,
3170409596,20,-469,-15985,5,8,-5,-125,-95,-1734,
3170429585,-25,-507,-15960,6,8,-4,-131,-83,-1709,
3170449574,11,-528,-15962,5,9,-3,-131,-107,-1698,
3170469563,-10,-481,-15958,4,8,-3,-131,-95,-1721,
3170489552,6,-481,-16015,5,9,-4,-119,-101,-1698,
3170509541,-6,-526,-16004,5,8,-4,-137,-89,-1746,
3170529530,22,-482,-15978,5,8,-5,-143,-101,-1734,
3170549519,5,-494,-15966,5,9,-3,-137,-107,-1734,
3170569508,-14,-516,-15968,4,8,-3,-131,-107,-1709,
3170589497,-2,-514,-15976,5,8,-4,-131,-101,-1721,
3170609486,6,-483,-15972,4,8,-4,-119,-107,-1746,
3170629475,6,-481,-16018,4,8,-5,-143,-101,-1734,
3170649464,-35,-506,-15982,4,8,-4,-119,-101,-1771,
3170669453,-20,-509,-15976,4,8,-4,-125,-83,-1769,
3170689442,6,-485,-15995,4,8,-4,-131,-107,-1709,
3170709431,4,-486,-15971,5,8,-5,-143,-95,-1746,
3170729420,-3,-503,-15975,5,8,-5,-143,-89,-1746,
3170749409,-12,-507,-15973,4,8,-5,-143,-95,-1757,
3170769398,8,-506,-15974,4,7,-5,-131,-95,-1734,
3170789387,-6,-496,-15958,5,7,-4,-125,-89,-1709,
3170809376,-1,-476,-15978,5,8,-4,-125,-89,-1734,
3170829365,25,-499,-15992,5,8,-4,-131,-107,-1734,
3170849354,5,-501,-15960,5,8,-5,-143,-107,-1746,
3170869343,-10,-519,-15971,4,8,-5,-131,-101,-1746,
3170889332,0,-521,-15987,4,8,-5,-143,-101,-1709,
3170909321,7,-521,-15959,5,8,-5,-143,-89,-1746,
3170929310,-3,-511,-15969,5,8,-5,-137,-101,-1746,
3170949299,15,-505,-15994,5,8,-4,-143,-113,-1734,
3170969288,13,-496,-15949,4,9,-4,-137,-95,-1757,
3170989277,-18,-513,-15985,5,7,-4,-137,-113,-1734,
3171009266,-8,-516,-15995,5,7,-3,-125,-101,-1746,
3171029255,3,-492,-15994,5,8,-4,-125,-107,-1746,
3171049244,6,-518,-15971,4,8,-5,-137,-101,-1757,
3171069233,5,-510,-15988,4,8,-4,-131,-107,-1757,
3171089222,-20,-523,-15972,5,8,-4,-131,-89,-1746,
3171109211,-18,-489,-15977,4,8,-5,-125,-89,-1721,
3171129200,9,-492,-15997,5,9,-4,-113,-83,-1746,
3171149189,-21,-509,-15971,4,7,-4,-125,-83,-1734,
3171169178,-52,-487,-15968,3,8,-4,-125,-72,-1734,
3171189167,-9,-512,-15991,6,8,-4,-131,-89,-1721,
3171209156,-12,-504,-15985,5,8,-4,-125,-101,-1746,
3171229145,-10,-524,-15977,4,8,-4,-125,-83,-1782,
3171249134,-14,-514,-15983,5,8,-4,-149,-101,-1723,
3171269123,-8,-493,-15988,4,8,-4,-131,-95,-1734,
3171289112,-4,-510,-15977,4,8,-3,-137,-83,-1746,
3171309101,-7,-519,-15968,4,9,-4,-143,-83,-1746,
3171329090,-15,-519,-15988,4,9,-4,-137,-89,-1746,
3171349079,-17,-481,-15989,4,8,-3,-137,-83,-1746,
3171369068,8,-486,-15968,5,8,-4,-131,-95,-1734,
3171389057,15,-512,-15968,5,7,-4,-149,-95,-1721,
3171409046,-13,-507,-15992,5,7,-4,-131,-89,-1734,
3171429035,-35,-489,-15972,5,8,-4,-125,-89,-1709,
3171449024,0,-502,-15981,5,8,-5,-125,-89,-1723,
3171469013,12,-515,-15971,4,9,-4,-149,-83,-1734,
3171489002,0,-511,-15966,5,9,-4,-125,-89,-1698,
3171508991,0,-511,-15966,4,8,-4,-143,-95,-1746,
3171528980,-5,-513,-15994,4,8,-4,-137,-101,-1721,
3171548969,-4,-514,-15994,4,9,-4,-137,-89,-1732,
3171568958,5,-519,-15981,4,8,-4,-137,-89,-1732,
3171588947,1,-512,-16008,7,8,-4,-149,-95,-1698,
3171608936,-24,-486,-15996,6,8,-4,-154,-95,-1709,
3171628925,-27,-514,-15972,5,9,-5,-143,-101,-1721,
3171648914,-21,-512,-15980,5,9,-3,-143,-83,-1734,
3171668903,-12,-513,-15989,6,8,-5,-125,-101,-1757,
3171688892,4,-510,-16005,4,8,-5,-131,-95,-1721,
3171708881,-26,-504,-15950,5,8,-4,-143,-95,-1732,
3171728870,-13,-489,-15982,6,9,-5,-137,-89,-1721,
3171748860,-3,-482,-15986,5,9,-4,-137,-83,-1721,
3171768849,-3,-530,-15982,5,7,-5,-137,-101,-1709,
3171788838,7,-509,-15986,5,7,-5,-137,-101,-1757,
3171808827,-25,-488,-15978,5,8,-4,-143,-89,-1732,
3171828816,-8,-513,-15976,5,8,-4,-131,-101,-1757,
3171848805,3,-537,-15967,4,8,-4,-149,-89,-1721,
3171868794,-8,-504,-15962,5,8,-4,-143,-89,-1746,
3171888783,5,-479,-15955,4,8,-4,-131,-89,-1734,
3171908772,5,-495,-15989,5,8,-4,-137,-101,-1721,
3171928761,-9,-537,-15982,4,8,-4,-131,-95,-1757,
3171948750,2,-487,-15972,4,7,-4,-119,-95,-1769,
3171968739,25,-457,-15984,4,8,-5,-143,-83,-1734,
3171988728,1,-530,-15992,4,8,-4,-143,-101,-1709,
3172008717,-44,-532,-15946,5,7,-3,-137,-83,-1721,
3172028706,-14,-478,-15983,4,8,-4,-131,-101,-1721,
3172048695,12,-479,-15990,5,9,-5,-125,-83,-1769,
3172068684,-26,-526,-15940,5,7,-4,-154,-95,-1757,
3172088673,-27,-510,-15947,5,8,-4,-119,-113,-1746,
3172108662,29,-493,-16002,5,8,-4,-149,-95,-1769,
3172128651,-2,-505,-15984,5,8,-5,-137,-95,-1721,
3172148640,-44,-523,-15958,5,9,-4,-143,-89,-1734,
3172168629,29,-491,-15976,4,9,-4,-125,-101,-1746,
3172188618,42,-486,-15990,5,7,-5,-131,-101,-1757,
3172208607,-5,-508,-15953,4,8,-4,-131,-101,-1746,
3172228596,-15,-513,-15959,6,9,-4,-143,-101,-1769,
3172248585,18,-502,-16006,5,8,-3,-119,-101,-1782,
3172268574,3,-496,-15994,5,7,-4,-137,-89,-1746,
3172288563,-19,-487,-15960,5,9,-4,-113,-95,-1709,
3172308552,31,-496,-15993,4,9,-4,-125,-95,-1746,
3172328541,20,-509,-15990,4,9,-4,-143,-95,-1734,
3172348530,-29,-505,-15954,5,8,-4,-143,-89,-1746,
3172368519,14,-508,-15990,5,8,-5,-131,-89,-1734,
3172388508,26,-512,-15996,4,8,-5,-137,-89,-1709,
3172408497,-19,-509,-15994,5,7,-4,-137,-101,-1746,
3172428486,-10,-519,-15996,4,8,-4,-125,-113,-1746,
3172448475,17,-509,-16004,5,9,-4,-119,-119,-1769,
3172468464,-2,-521,-15988,5,8,-3,-125,-101,-1721,
3172488453,0,-518,-15966,5,8,-4,-119,-72,-1746,
3172508442,18,-483,-15974,5,8,-5,-149,-101,-1769,
3172528431,14,-505,-15961,4,8,-4,-137,-95,-1746,
3172548420,6,-520,-15969,4,8,-3,-143,-95,-1771,
3172568409,-6,-513,-15985,4,8,-4,-137,-83,-1769,
3172588398,2,-498,-15977,5,8,-4,-125,-107,-1734,
3172608387,-4,-504,-15980,4,8,-5,-137,-83,-1757,
3172628376,5,-510,-15988,5,8,-3,-137,-89,-1721,
3172648365,1,-489,-15980,4,7,-4,-137,-95,-1746,
3172668354,-5,-459,-15967,5,8,-5,-137,-107,-1709,
3172688343,20,-520,-15984,5,9,-4,-125,-95,-1757,
3172708332,-7,-518,-15977,4,8,-4,-143,-101,-1734,
3172728321,-1,-489,-15984,5,7,-4,-131,-89,-1698,
3172748310,9,-484,-15997,5,9,-5,-131,-95,-1721,
3172768299,14,-505,-15985,5,8,-4,-143,-95,-1721,
3172788288,-19,-525,-15968,4,8,-4,-119,-77,-1746,
3172808277,8,-482,-15979,4,9,-5,-149,-113,-1734,
3172828266,-1,-514,-15991,4,8,-3,-143,-95,-1734,
3172848255,-31,-529,-15969,5,7,-3,-113,-95,-1721,
3172868244,0,-507,-15980,4,8,-4,-137,-95,-1686,
3172888233,3,-484,-15994,5,8,-4,-137,-95,-1746,
3172908222,-7,-486,-15976,4,8,-4,-143,-95,-1757,
3172928211,-19,-490,-15980,4,8,-5,-137,-95,-1721,
3172948200,34,-483,-15972,4,8,-4,-137,-95,-1757,
3172968189,7,-504,-15975,4,8,-4,-137,-101,-1757,
3172988178,-19,-517,-15974,4,8,-5,-125,-95,-1721,
3173008167,-1,-484,-16004,4,7,-5,-131,-89,-1746,
3173028156,3,-518,-15992,4,8,-4,-131,-77,-1734,
3173048145,-2,-517,-15989,4,8,-4,-137,-101,-1746,
3173068134,-13,-484,-15986,4,8,-4,-137,-95,-1769,
3173088123,12,-494,-15994,5,8,-4,-143,-83,-1769,
3173108112,5,-529,-15970,4,9,-4,-143,-101,-1721,
3173128101,-22,-518,-15982,5,9,-4,-137,-89,-1782,
3173148090,3,-478,-16000,5,9,-3,-113,-101,-1746,
3173168079,-4,-491,-15982,5,9,-4,-131,-101,-1734,
3173188068,-11,-512,-15979,5,8,-4,-125,-89,-1746,
3173208058,9,-497,-16007,5,8,-4,-113,-95,-1709,
3173228047,-2,-475,-15965,5,8,-4,-137,-95,-1721,
3173248036,-5,-497,-15992,6,8,-4,-131,-101,-1734,
3173268025,-27,-536,-15985,6,8,-4,-149,-89,-1721,
3173288014,-15,-522,-15976,5,9,-4,-137,-95,-1721,
3173308003,-4,-479,-15976,5,8,-5,-149,-89,-1734,
3173327992,20,-495,-16000,5,8,-5,-119,-107,-1746,
3173347981,-6,-515,-16010,5,9,-4,-137,-95,-1734,
3173367970,-15,-498,-15996,5,9,-4,-119,-89,-1734,
3173387959,-4,-466,-16009,5,9,-5,-137,-95,-1734,
3173407948,-9,-504,-15975,5,8,-5,-137,-77,-1757,
3173427937,-17,-508,-15961,5,8,-4,-119,-83,-1746,
3173447926,21,-487,-15972,4,8,-4,-131,-89,-1721,
3173467915,-10,-481,-15980,4,7,-5,-143,-95,-1769,
3173487904,-15,-495,-15954,4,8,-4,-143,-89,-1746,
3173507893,10,-517,-15966,4,9,-4,-143,-101,-1734,
3173527882,6,-492,-15994,5,9,-4,-143,-95,-1746,
3173547871,-18,-472,-15966,5,8,-5,-131,-95,-1723,
3173567860,-4,-510,-15973,4,7,-4,-131,-101,-1734,
3173587849,8,-522,-15987,5,8,-4,-137,-83,-1709,
3173607838,-15,-510,-15972,5,8,-4,-125,-89,-1757,
3173627827,-26,-475,-15961,4,8,-4,-143,-89,-1769,
3173647816,5,-499,-15984,4,8,-5,-137,-101,-1757,
3173667805,10,-508,-15983,6,8,-5,-137,-89,-1746,
3173687794,-23,-496,-16005,6,8,-5,-137,-89,-1721,
3173707783,-17,-469,-15978,5,8,-3,-131,-83,-1746,
3173727772,6,-513,-15997,5,8,-4,-125,-83,-1709,
3173747761,22,-560,-15984,5,8,-4,-119,-107,-1721,
3173767750,-28,-506,-15980,4,8,-4,-137,-83,-1734,
3173787739,8,-469,-15976,5,9,-4,-131,-107,-1734,
3173807728,-14,-518,-15987,5,8,-5,-137,-89,-1721,
3173827717,-9,-523,-15978,5,8,-4,-131,-113,-1732,
3173847706,-22,-506,-15976,4,8,-4,-143,-95,-1732,
3173867695,-6,-500,-15981,5,8,-4,-119,-89,-1721,
3173887684,-26,-524,-15980,5,8,-5,-131,-89,-1709,
3173907673,-23,-543,-15985,6,9,-5,-125,-89,-1721,
3173927662,10,-499,-15983,5,7,-4,-125,-101,-1734,
3173947651,-12,-475,-15987,4,8,-5,-131,-101,-1732,
3173967640,-16,-509,-15973,5,7,-4,-131,-89,-1746,
3173987629,-5,-505,-15965,5,8,-5,-137,-83,-1746,
3174007618,16,-528,-15983,5,8,-4,-143,-89,-1746,
3174027607,-7,-500,-15999,5,8,-4,-131,-95,-1734,
3174047596,-17,-506,-15973,5,8,-5,-143,-89,-1734,
3174067585,-3,-489,-15977,6,8,-4,-137,-101,-1709,
3174087574,3,-500,-15996,5,9,-4,-125,-95,-1734,
3174107563,-9,-515,-15978,5,9,-4,-131,-113,-1734,
3174127552,-35,-494,-15972,5,8,-4,-149,-89,-1734,
3174147541,10,-493,-15999,5,9,-4,-143,-107,-1732,
3174167530,16,-505,-15982,5,9,-4,-131,-83,-1734,
3174187519,-7,-525,-15984,4,8,-3,-131,-95,-1757,
3174207508,-25,-492,-15977,4,8,-5,-125,-95,-1709,
3174227497,-2,-514,-15979,4,7,-4,-149,-89,-1734,
3174247486,-15,-504,-15979,5,8,-4,-143,-77,-1734,
3174267475,-44,-484,-15983,5,8,-4,-119,-95,-1709,
3174287464,9,-489,-15988,5,8,-4,-131,-89,-1734,
3174307453,-5,-521,-15981,5,8,-4,-137,-89,-1721,
3174327442,-7,-520,-15975,5,8,-4,-119,-95,-1734,
3174347431,-10,-509,-15955,4,8,-5,-149,-95,-1721,
3174367420,-7,-493,-15981,5,8,-5,-143,-101,-1734,
3174387409,-34,-522,-15997,5,8,-4,-137,-89,-1709,
3174407398,16,-506,-15981,5,9,-4,-113,-89,-1721,
3174427387,-11,-503,-15986,5,7,-4,-131,-101,-1721,
3174447376,9,-500,-15981,5,8,-4,-131,-95,-1734,
3174467365,13,-502,-15976,5,8,-5,-137,-101,-1721,
3174487354,-11,-515,-15963,5,8,-4,-149,-89,-1732,
3174507343,-17,-496,-15966,5,8,-4,-131,-83,-1721,
3174527332,-14,-489,-15980,5,8,-4,-131,-89,-1734,
3174547321,20,-523,-15976,5,8,-4,-113,-89,-1757,
3174567310,20,-480,-15989,5,8,-4,-119,-83,-1757,
3174587299,3,-490,-15980,5,8,-4,-125,-101,-1734,
3174607288,-16,-503,-15981,6,8,-5,-154,-95,-1757,
3174627277,-10,-500,-15982,5,8,-5,-154,-95,-1746,
3174647266,-13,-483,-15976,5,7,-3,-137,-95,-1769,
3174667256,-13,-497,-15986,5,8,-4,-131,-107,-1698,
3174687245,-31,-491,-15982,5,7,-3,-125,-107,-1721,
3174707234,-14,-502,-15975,5,8,-3,-137,-95,-1769,
3174727223,-13,-497,-15992,5,8,-3,-154,-101,-1746,
3174747212,-13,-504,-15995,5,8,-4,-131,-101,-1734,
3174767201,-7,-519,-15984,5,8,-4,-143,-83,-1709,
3174787190,-4,-510,-15980,5,7,-4,-143,-101,-1698,
3174807179,-6,-512,-15996,4,8,-5,-125,-83,-1732,
3174827168,-10,-505,-15981,4,8,-4,-131,-101,-1757,
3174847157,8,-534,-15976,4,9,-4,-143,-95,-1721,
3174867146,8,-537,-15993,6,9,-3,-137,-89,-1769,
3174887135,-6,-513,-15969,5,7,-4,-137,-101,-1721,
3174907124,9,-512,-15971,4,8,-4,-143,-95,-1757,
3174927113,5,-490,-15990,4,9,-6,-125,-89,-1734,
3174947102,-22,-515,-15966,4,8,-4,-143,-95,-1769,
3174967091,-16,-509,-15969,5,8,-4,-131,-95,-1757,
3174987080,10,-497,-16001,5,8,-4,-137,-95,-1732,
3175007069,-6,-517,-15998,4,8,-3,-137,-101,-1746,
3175027058,3,-524,-15992,5,8,-4,-137,-101,-1769,
3175047047,13,-491,-15996,4,8,-5,-131,-83,-1757,
3175067036,-7,-490,-15983,5,8,-4,-131,-89,-1746,
3175087025,-26,-513,-15966,5,8,-4,-131,-89,-1721,
3175107014,11,-491,-15987,4,9,-5,-137,-101,-1746,
3175127003,21,-501,-15986,5,9,-4,-125,-113,-1732,
3175146992,-31,-499,-15977,5,8,-4,-137,-77,-1746,
3175166981,0,-505,-16002,5,9,-5,-137,-101,-1721,
3175186970,38,-515,-15976,5,9,-3,-119,-95,-1709,
3175206959,-36,-499,-15957,5,8,-3,-125,-101,-1732,
3175226948,-33,-475,-15986,4,8,-3,-125,-101,-1757,
3175246937,36,-484,-16005,4,8,-4,-131,-89,-1734,
3175266926,-1,-504,-15997,5,8,-4,-137,-89,-1757,
3175286915,-18,-508,-15956,4,8,-4,-131,-83,-1734,
3175306904,3,-473,-15977,5,7,-3,-131,-77,-1709,
3175326893,-10,-476,-15995,4,7,-4,-131,-89,-1721,
3175346882,-17,-511,-15980,4,9,-4,-131,-113,-1757,
3175366871,-17,-481,-15977,4,9,-5,-125,-95,-1734,
3175386860,12,-481,-15992,5,8,-4,-125,-101,-1746,
3175406849,-17,-492,-15973,5,7,-3,-131,-95,-1734,
3175426838,-13,-515,-15983,5,8,-3,-137,-107,-1723,
3175446827,11,-511,-16001,5,8,-4,-125,-101,-1734,
3175466816,0,-469,-16003,4,8,-5,-131,-113,-1757,
3175486805,-26,-487,-15980,5,7,-4,-131,-101,-1709,
3175506794,10,-502,-15969,5,7,-5,-137,-95,-1721,
3175526783,-7,-491,-15986,5,8,-5,-131,-95,-1732,
3175546772,-16,-514,-15980,4,7,-4,-131,-83,-1757,
3175566761,-3,-506,-15990,5,7,-4,-137,-119,-1757,
3175586750,-10,-521,-15990,5,8,-4,-119,-89,-1721,
3175606739,-32,-496,-15975,5,8,-4,-154,-95,-1757,
3175626728,-6,-482,-15977,4,8,-4,-119,-83,-1732,
3175646717,10,-487,-15964,4,9,-5,-137,-101,-1721,
3175666706,-8,-514,-15984,4,8,-4,-137,-101,-1698,
3175686695,-21,-504,-15986,5,8,-4,-137,-89,-1746,
3175706684,-6,-457,-16010,4,9,-5,-143,-77,-1746,
3175726673,-13,-507,-15988,5,8,-5,-131,-77,-1757,
3175746662,-10,-519,-15982,5,7,-5,-131,-89,-1746,
3175766651,-14,-478,-15996,4,8,-5,-119,-107,-1757,
3175786640,1,-467,-15993,4,8,-4,-131,-83,-1721,
3175806629,21,-508,-15986,5,8,-4,-131,-95,-1709,
3175826618,14,-517,-15974,5,7,-4,-149,-107,-1721,
3175846607,11,-505,-15988,5,8,-4,-131,-83,-1746,
3175866596,-32,-477,-15987,5,8,-5,-125,-95,-1746,
3175886585,9,-507,-15978,5,9,-4,-149,-89,-1757,
3175906574,-14,-543,-15978,5,9,-4,-143,-95,-1746,
3175926563,-22,-497,-15971,5,8,-4,-137,-89,-1746,
3175946552,11,-505,-16014,4,8,-4,-131,-101,-1732,
3175966541,-3,-535,-15988,4,9,-4,-131,-83,-1721,
3175986530,-32,-518,-15970,5,9,-3,-149,-83,-1746,
3176006519,6,-467,-15997,5,8,-4,-131,-107,-1709,
3176026508,-3,-476,-15984,4,8,-4,-125,-95,-1721,
3176046497,-27,-525,-15964,5,8,-4,-137,-95,-1757,
3176066486,3,-523,-15973,5,9,-5,-137,-101,-1769,
3176086475,10,-460,-15986,5,8,-4,-143,-95,-1698,
3176106464,-1,-470,-15971,5,8,-4,-119,-83,-1757,
3176126454,-11,-519,-15984,4,8,-4,-131,-89,-1746,
3176146443,20,-511,-16007,5,8,-4,-149,-101,-1769,
3176166432,-12,-480,-16012,5,8,-5,-131,-89,-1709,
3176186421,-12,-496,-15979,5,9,-5,-125,-119,-1721,
3176206410,3,-502,-16006,5,9,-4,-143,-107,-1757,
3176226399,25,-506,-15984,5,9,-6,-137,-89,-1746,
3176246388,-11,-483,-15995,5,9,-5,-149,-101,-1746,
3176266377,-29,-495,-15983,5,8,-3,-131,-77,-1721,
3176286366,-5,-517,-15980,5,8,-5,-143,-107,-1698,
3176306355,-6,-487,-15983,5,8,-4,-143,-77,-1757,
3176326344,4,-469,-16010,5,9,-4,-131,-101,-1709,
3176346333,20,-497,-15988,5,8,-4,-137,-95,-1709,
3176366322,-11,-497,-15984,5,8,-4,-131,-101,-1746,
3176386311,-8,-510,-15981,4,8,-6,-149,-83,-1769,
3176406300,38,-483,-15979,5,8,-6,-137,-77,-1746,
3176426289,-13,-522,-15989,6,8,-4,-149,-95,-1746,
3176446278,-7,-509,-15980,5,8,-5,-125,-72,-1746,
3176466267,8,-455,-15980,5,9,-4,-160,-101,-1757,
3176486256,-1,-476,-15989,4,8,-3,-125,-89,-1709,
3176506245,-13,-509,-16002,4,7,-3,-119,-95,-1732,
3176526234,-5,-490,-15985,5,9,-4,-143,-95,-1732,
3176546223,16,-496,-16001,5,8,-4,-143,-89,-1746,
3176566212,-22,-484,-15969,3,8,-4,-143,-95,-1698,
3176586201,-1,-528,-15990,4,8,-4,-143,-89,-1698,
3176606190,22,-507,-15986,5,9,-4,-143,-77,-1757,
3176626179,-4,-494,-15977,4,8,-4,-131,-95,-1734,
3176646168,-12,-510,-15985,5,9,-5,-131,-95,-1769,
3176666157,-6,-516,-15976,5,8,-4,-131,-83,-1732,
3176686146,-31,-522,-15999,5,8,-5,-149,-101,-1757,
3176706135,-9,-492,-15979,4,8,-5,-143,-95,-1746,
3176726124,9,-508,-15976,5,8,-5,-143,-107,-1769,
3176746113,-6,-510,-15973,4,9,-5,-149,-101,-1769,
3176766102,-29,-513,-15990,4,8,-5,-131,-77,-1721,
3176786091,-10,-516,-15989,5,8,-4,-119,-95,-1709,
3176806080,5,-515,-15995,5,8,-4,-131,-89,-1757,
3176826069,2,-533,-15965,5,8,-4,-137,-95,-1721,
3176846058,1,-503,-15987,5,8,-5,-131,-113,-1734,
3176866047,-7,-470,-15985,5,9,-5,-143,-89,-1709,
3176886036,11,-491,-15991,5,8,-4,-143,-107,-1709,
3176906025,-6,-521,-16001,5,8,-4,-143,-89,-1721,
3176926014,5,-499,-15969,5,7,-5,-160,-101,-1769,
3176946003,-5,-487,-15976,4,9,-4,-143,-77,-1732,
3176965992,0,-482,-15996,5,9,-4,-131,-95,-1757,
3176985981,13,-544,-16004,6,8,-4,-137,-95,-1769,
3177005970,0,-531,-15976,5,8,-4,-119,-89,-1746,
3177025959,-3,-483,-15990,4,9,-4,-143,-83,-1746,
3177045948,11,-482,-15999,5,8,-4,-119,-83,-1721,
3177065937,1,-515,-15977,5,8,-5,-143,-95,-1709,
3177085926,-7,-530,-16003,5,8,-4,-137,-89,-1732,
3177105915,7,-497,-15975,5,8,-4,-143,-89,-1746,
3177125904,-6,-489,-15963,5,8,-4,-137,-95,-1721,
3177145893,10,-519,-15985,5,9,-4,-143,-101,-1721,
3177165882,-3,-526,-15995,5,9,-4,-125,-101,-1698,
3177185871,4,-505,-15982,4,9,-4,-125,-113,-1746,
3177205860,8,-499,-15993,4,9,-5,-137,-101,-1721,
3177225849,-3,-517,-16004,4,9,-4,-143,-95,-1746,
3177245838,-25,-492,-15984,5,8,-3,-131,-77,-1746,
3177265827,10,-485,-15983,5,8,-5,-131,-113,-1721,
3177285816,6,-493,-15993,4,8,-4,-137,-107,-1696,
3177305805,-18,-505,-15987,5,8,-4,-143,-107,-1732,
3177325794,5,-508,-15980,5,8,-5,-137,-95,-1732,
3177345783,33,-477,-15996,4,8,-4,-143,-89,-1709,
3177365772,-16,-479,-15990,4,8,-4,-113,-101,-1769,
3177385761,6,-493,-15969,4,8,-5,-125,-83,-1732,
3177405750,13,-518,-15983,5,9,-4,-137,-95,-1757,
3177425739,6,-518,-15990,5,8,-4,-137,-95,-1757,
3177445728,-29,-476,-15964,4,8,-5,-137,-77,-1757,
3177465717,9,-486,-16016,5,7,-5,-143,-95,-1709,
3177485706,10,-517,-16006,5,7,-4,-119,-101,-1721,
3177505695,-31,-499,-15968,5,8,-3,-143,-89,-1698,
3177525684,-11,-476,-16008,4,9,-3,-143,-95,-1721,
3177545673,4,-476,-15996,5,9,-4,-131,-107,-1746,
3177565662,-17,-521,-15976,6,8,-5,-154,-89,-1746,
3177585651,-8,-513,-15983,5,8,-4,-131,-101,-1746,
3177605641,12,-452,-16008,5,8,-3,-137,-89,-1757,
3177625630,-7,-500,-15968,6,8,-3,-125,-83,-1732,
3177645619,-8,-551,-15963,4,8,-4,-143,-89,-1732,
3177665608,6,-505,-15978,3,8,-4,-131,-101,-1734,
3177685597,14,-491,-15968,4,8,-4,-137,-83,-1757,
3177705586,-14,-537,-15967,5,7,-4,-125,-89,-1746,
3177725575,-16,-529,-15972,4,8,-5,-143,-83,-1721,
3177745564,6,-476,-15988,4,8,-5,-125,-83,-1746,
3177765553,9,-498,-15979,5,8,-5,-131,-83,-1732,
3177785542,14,-528,-15965,5,9,-4,-125,-101,-1732,
3177805531,-9,-518,-15979,6,9,-4,-143,-101,-1757,
3177825520,-1,-499,-15990,5,8,-4,-149,-89,-1709,
3177845509,2,-510,-16002,5,8,-4,-143,-89,-1746,
3177865498,-30,-538,-15971,3,9,-5,-131,-101,-1746,
3177885487,-22,-524,-15985,5,9,-4,-143,-83,-1746,
3177905476,-2,-497,-15977,6,8,-4,-119,-95,-1698,
3177925465,-38,-481,-15986,5,8,-4,-143,-89,-1757,
3177945454,12,-515,-15993,5,8,-3,-137,-83,-1746,
3177965443,4,-533,-15981,5,8,-3,-125,-107,-1757,
3177985432,-16,-513,-15972,5,8,-4,-137,-95,-1757,
3178005421,-8,-521,-15978,6,9,-4,-137,-101,-1732,
3178025410,41,-517,-15980,6,8,-4,-137,-101,-1732,
3178045399,28,-518,-15960,4,8,-4,-149,-83,-1732,
3178065388,-8,-505,-15991,5,8,-4,-137,-95,-1732,
3178085377,7,-517,-16003,4,9,-5,-137,-95,-1721,
3178105366,2,-513,-16001,6,8,-5,-137,-95,-1698,
3178125355,-9,-526,-15987,5,8,-4,-125,-101,-1746,
3178145344,6,-504,-15981,5,9,-4,-149,-107,-1732,
3178165333,21,-501,-15971,5,7,-5,-137,-89,-1721,
3178185322,-23,-481,-15960,5,8,-4,-137,-83,-1721,
3178205311,-11,-493,-15989,5,10,-4,-137,-83,-1684,
3178225300,14,-509,-15977,5,8,-4,-131,-83,-1746,
3178245289,-30,-498,-15969,5,8,-5,-137,-72,-1721,
3178265278,-21,-477,-15983,5,8,-4,-154,-83,-1732,
3178285267,-1,-513,-15968,4,9,-4,-113,-83,-1721,
3178305256,-11,-524,-15984,4,9,-3,-143,-89,-1757,
3178325245,12,-508,-15971,4,9,-4,-149,-89,-1732,
3178345234,2,-510,-15988,5,8,-4,-125,-83,-1746,
3178365223,-18,-504,-15987,5,7,-4,-137,-101,-1746,
3178385212,-12,-509,-15988,6,8,-4,-125,-101,-1746,
3178405201,6,-485,-15991,4,9,-4,-149,-107,-1721,
3178425190,-6,-521,-15996,4,7,-5,-125,-95,-1721,
3178445179,-33,-512,-15986,4,8,-4,-149,-101,-1746,
3178465168,12,-521,-15986,5,8,-4,-137,-77,-1721,
3178485157,0,-518,-15977,5,8,-5,-131,-101,-1732,
3178505146,-14,-509,-15951,5,8,-4,-131,-101,-1709,
3178525135,8,-520,-15974,6,9,-5,-131,-83,-1769,
3178545124,-7,-504,-15997,5,8,-3,-131,-83,-1721,
3178565113,-13,-513,-15992,5,8,-4,-131,-89,-1732,
3178585102,-5,-513,-15995,5,9,-4,-137,-95,-1757,
3178605091,16,-498,-15977,5,8,-4,-143,-107,-1734,
3178625080,-21,-507,-15982,4,8,-3,-125,-95,-1709,
3178645069,-7,-495,-15959,4,9,-5,-143,-101,-1721,
3178665058,2,-498,-16004,3,9,-5,-137,-107,-1721,
3178685047,0,-506,-15984,4,8,-4,-119,-95,-1746,
3178705036,-3,-518,-15964,5,8,-4,-149,-101,-1769,
3178725025,-7,-510,-16000,6,8,-5,-143,-107,-1782,
3178745014,-12,-517,-16011,4,8,-5,-149,-95,-1732,
3178765003,-29,-495,-15970,4,8,-5,-137,-95,-1734,
3178784992,-5,-488,-15971,5,8,-4,-143,-101,-1746,
3178804981,8,-517,-15992,5,9,-5,-149,-95,-1746,
3178824970,4,-514,-15999,5,8,-4,-125,-83,-1721,
3178844959,-15,-519,-15974,6,8,-4,-149,-83,-1732,
3178864948,-2,-490,-15992,6,8,-4,-137,-107,-1721,
3178884937,15,-497,-16006,3,8,-4,-137,-95,-1721,
3178904926,-20,-530,-15990,5,8,-3,-119,-95,-1757,
3178924915,4,-520,-16000,5,9,-4,-119,-83,-1746,
3178944904,11,-477,-15986,5,8,-4,-143,-77,-1732,
3178964893,37,-520,-16018,5,8,-4,-131,-107,-1732,
3178984882,-10,-514,-15996,6,7,-3,-131,-77,-1757,
3179004871,-22,-487,-15984,5,8,-4,-137,-83,-1746,
3179024860,8,-492,-15963,4,7,-4,-131,-101,-1732,
3179044849,-11,-529,-15987,5,6,-4,-131,-107,-1746,
3179064839,-41,-485,-15971,5,8,-3,-137,-101,-1769,
3179084828,24,-511,-15956,5,9,-5,-154,-95,-1721,
3179104817,-61,-489,-15956,6,8,-5,-137,-89,-1757,
3179124806,1,-517,-15998,5,8,-5,-143,-89,-1757,
3179144795,24,-516,-16019,5,9,-4,-125,-101,-1746,
3179164784,-26,-498,-15943,4,8,-5,-125,-95,-1732,
3179184773,-6,-507,-15990,4,8,-6,-131,-101,-1721,
3179204762,-4,-508,-15974,5,9,-3,-131,-107,-1709,
3179224751,17,-492,-15993,5,9,-4,-131,-89,-1757,
3179244740,23,-499,-15998,5,9,-5,-137,-101,-1757,
3179264729,22,-516,-15988,4,7,-4,-143,-83,-1744,
3179284718,14,-523,-15981,4,7,-4,-137,-101,-1746,
3179304707,-40,-499,-15983,5,8,-5,-149,-95,-1721,
3179324696,-23,-482,-15998,4,9,-4,-137,-101,-1746,
3179344685,4,-500,-15971,4,8,-4,-131,-89,-1734,
3179364674,-74,-519,-15948,4,8,-4,-137,-95,-1757,
3179384663,5,-539,-15992,4,9,-4,-137,-95,-1709,
3179404652,26,-507,-16003,4,9,-5,-131,-95,-1757,
3179424641,-47,-473,-15979,5,8,-4,-131,-95,-1757,
3179444630,-14,-504,-15975,5,8,-4,-143,-89,-1746,
3179464619,-8,-518,-15994,4,9,-4,-119,-95,-1757,
3179484608,-33,-469,-15979,5,8,-3,-119,-83,-1744,
3179504597,-7,-487,-15980,5,9,-4,-137,-95,-1709,
3179524586,4,-516,-16012,4,8,-5,-137,-101,-1746,
3179544575,-33,-521,-15966,4,7,-5,-137,-95,-1709,
3179564564,-11,-507,-15994,4,8,-5,-137,-101,-1746,
3179584553,12,-497,-16003,5,9,-4,-131,-119,-1721,
3179604542,34,-505,-15973,4,8,-4,-137,-89,-1709,
3179624531,7,-534,-16010,4,8,-5,-125,-95,-1709,
3179644520,-32,-485,-15957,5,8,-4,-137,-107,-1732,
3179664509,-7,-505,-15965,5,8,-4,-125,-113,-1757,
3179684498,0,-514,-15991,4,8,-4,-119,-89,-1732,
3179704487,6,-513,-15969,5,7,-5,-137,-101,-1769,
3179724476,15,-486,-16010,5,8,-4,-125,-101,-1746,
3179744465,7,-470,-15998,4,8,-4,-137,-101,-1721,
3179764454,-30,-506,-15968,4,8,-5,-143,-101,-1744,
3179784443,20,-513,-15985,5,8,-5,-143,-83,-1746,
3179804432,-11,-496,-15986,5,9,-4,-131,-113,-1721,
3179824421,0,-482,-15980,5,8,-4,-149,-89,-1734,
3179844410,2,-493,-15985,5,8,-4,-131,-83,-1757,
3179864399,3,-502,-15966,5,8,-4,-143,-95,-1746,
3179884388,-3,-492,-16016,5,8,-5,-137,-107,-1734,
3179904377,-1,-474,-15977,5,8,-4,-131,-95,-1805,
3179924366,-8,-505,-15988,5,9,-4,-137,-101,-1698,
3179944355,-22,-513,-15982,5,8,-5,-125,-113,-1744,
3179964344,-26,-484,-16012,5,8,-4,-119,-95,-1721,
3179984333,18,-498,-15985,4,8,-3,-131,-101,-1721,
3180004322,10,-523,-15997,5,7,-3,-131,-83,-1732,
3180024311,-16,-529,-15954,5,9,-4,-125,-89,-1721,
3180044300,18,-480,-15970,5,8,-4,-125,-101,-1732,
3180064289,10,-471,-15970,5,8,-4,-131,-107,-1732,
3180084278,-16,-509,-15978,5,8,-5,-137,-101,-1744,
3180104267,-20,-519,-15986,5,9,-5,-137,-89,-1757,
3180124256,-5,-474,-15992,6,9,-4,-137,-89,-1732,
3180144245,-2,-492,-15968,5,8,-4,-149,-101,-1721,
3180164234,4,-531,-15989,5,7,-4,-149,-89,-1709,
3180184223,-20,-532,-15990,4,8,-4,-125,-101,-1757,
3180204212,-1,-480,-15979,4,8,-4,-137,-107,-1721,
3180224201,5,-487,-15992,5,8,-4,-137,-89,-1757,
3180244190,-12,-516,-15969,5,8,-5,-131,-95,-1746,
3180264179,-4,-504,-15990,4,8,-5,-143,-89,-1732,
3180284168,-12,-496,-15992,4,7,-4,-143,-83,-1746,
3180304157,-6,-494,-15997,4,8,-4,-125,-95,-1734,
3180324146,-34,-512,-15972,5,8,-4,-131,-95,-1769,
3180344135,-1,-497,-15977,5,8,-4,-131,-107,-1746,
3180364124,2,-494,-15986,5,7,-4,-143,-107,-1709,
3180384113,-46,-501,-15983,5,8,-5,-137,-95,-1746,
3180404102,13,-510,-16021,5,8,-4,-143,-101,-1757,
3180424091,21,-489,-16003,5,8,-4,-125,-95,-1732,
3180444080,-24,-470,-15974,5,8,-4,-143,-101,-1746,
3180464069,2,-480,-15996,5,8,-4,-137,-107,-1744,
3180484058,13,-494,-16005,4,7,-4,-125,-107,-1780,
3180504047,-16,-497,-15980,5,8,-4,-131,-113,-1757,
3180524037,2,-480,-15999,5,9,-4,-143,-83,-1746,
3180544026,10,-497,-15988,5,9,-4,-131,-101,-1746,
3180564015,-6,-491,-15983,5,8,-5,-131,-113,-1732,
3180584004,-18,-496,-15984,5,8,-4,-137,-107,-1732,
3180603993,-6,-498,-16007,5,8,-4,-149,-107,-1721,
3180623982,8,-492,-15994,4,8,-4,-131,-83,-1709,
3180643971,-11,-497,-15975,4,8,-4,-131,-101,-1746,
3180663960,-2,-488,-15978,5,8,-4,-149,-107,-1769,
3180683949,5,-487,-16000,5,7,-4,-131,-89,-1757,
3180703938,-7,-489,-15987,5,8,-4,-131,-95,-1757,
3180723927,-12,-474,-15995,6,9,-5,-143,-101,-1782,
3180743916,14,-488,-16000,6,9,-5,-149,-101,-1721,
3180763905,-18,-505,-15983,4,9,-5,-131,-95,-1746,
3180783894,-21,-487,-15977,4,9,-4,-137,-89,-1732,
3180803883,-4,-493,-15980,5,8,-4,-131,-89,-1732,
3180823872,10,-480,-15989,6,9,-4,-143,-101,-1721,
3180843861,-8,-493,-15995,4,8,-4,-131,-95,-1757,
3180863850,3,-467,-16002,5,8,-5,-143,-101,-1744,
3180883839,152,-509,-16083,5,8,-4,-131,-101,-1746,
3180903828,389,-409,-16264,6,2,-4,-137,-89,-1746,
3180923817,172,-474,-16190,5,-10,-7,-143,-89,-1746,
3180943806,-277,-494,-15691,7,-15,-6,-143,-101,-1757,
3180963795,-374,-482,-15862,7,-1,-2,-131,-95,-1769,
3180983784,26,-539,-16080,5,3,-2,-137,-101,-1732,
3181003773,-65,-456,-15943,4,-2,-3,-154,-101,-1732,
3181023762,-81,-537,-15883,5,1,-3,-143,-101,-1744,
3181043751,-164,-620,-15875,5,5,-3,-137,-95,-1746,
3181063740,-280,-645,-15846,6,10,-4,-143,-101,-1721,
3181083729,-74,-472,-15934,2,16,-6,-137,-95,-1746,
3181103718,97,-297,-16083,4,17,-4,-113,-107,-1732,
3181123707,189,-467,-16114,6,12,-4,-137,-101,-1732,
3181143696,78,-635,-16022,6,7,-4,-131,-95,-1769,
3181163685,-238,-465,-15910,4,7,-4,-125,-95,-1721,
3181183674,28,-465,-16032,2,10,-5,-160,-89,-1721,
3181203663,73,-470,-16031,4,8,-5,-143,-95,-1769,
3181223652,-128,-514,-15928,6,7,-3,-143,-83,-1709,
3181243641,-115,-529,-15891,6,10,-4,-137,-83,-1732,
3181263630,-118,-471,-15962,4,12,-4,-131,-89,-1721,
3181283619,-12,-575,-15912,3,13,-4,-143,-101,-1721,
3181303608,-33,-593,-16007,4,16,-4,-131,-101,-1732,
3181323597,18,-415,-15971,3,15,-4,-149,-101,-1732,
3181343586,88,-380,-16082,3,13,-4,-137,-107,-1744,
3181363575,100,-455,-16084,4,11,-3,-125,-89,-1734,
3181383564,85,-612,-16062,5,7,-3,-143,-89,-1746,
3181403553,-76,-536,-15953,5,5,-4,-143,-107,-1757,
3181423542,-137,-397,-15914,6,7,-4,-125,-101,-1746,
3181443531,10,-510,-16012,4,9,-4,-137,-83,-1746,
3181463520,16,-558,-15969,4,8,-4,-119,-83,-1721,
3181483509,-60,-478,-15977,5,8,-5,-143,-95,-1684,
3181503498,5,-470,-15966,4,8,-4,-125,-107,-1721,
3181523487,-25,-511,-15997,6,8,-4,-131,-89,-1757,
3181543476,-24,-526,-15939,6,9,-4,-137,-83,-1746,
3181563465,60,-491,-16009,5,9,-5,-143,-107,-1746,
3181583454,34,-437,-15999,5,8,-5,-131,-95,-1757,
3181603443,-72,-505,-15957,6,7,-3,-137,-95,-1732,
3181623432,-50,-563,-15954,4,8,-3,-137,-77,-1746,
3181643421,15,-526,-16001,4,9,-4,-143,-101,-1757,
3181663410,-15,-453,-15991,6,8,-3,-137,-95,-1732,
3181683399,-44,-485,-15995,5,8,-4,-113,-95,-1684,
3181703388,-20,-511,-15976,4,9,-5,-125,-83,-1732,
3181723377,16,-503,-16010,5,9,-5,-143,-89,-1732,
3181743366,3,-481,-16009,5,9,-4,-149,-107,-1721,
3181763355,-4,-476,-15980,5,7,-4,-137,-113,-1732,
3181783344,-18,-512,-15994,5,7,-4,-131,-107,-1757,
3181803333,-35,-504,-15970,5,8,-4,-137,-101,-1757,
3181823322,-22,-496,-15978,4,8,-5,-143,-95,-1757,
3181843311,-5,-497,-15948,5,8,-4,-119,-95,-1746,
3181863300,-32,-508,-15954,5,9,-3,-125,-107,-1732,
3181883289,-17,-503,-15975,6,10,-6,-149,-107,-1746,
3181903278,17,-471,-16019,5,10,-5,-137,-107,-1732,
3181923267,-11,-485,-15992,4,9,-4,-137,-95,-1696,
3181943256,-12,-513,-15999,4,8,-4,-131,-89,-1732,
3181963245,-16,-506,-15989,5,8,-4,-131,-101,-1732,
3181983235,-4,-491,-15987,5,7,-4,-143,-95,-1769,
3182003224,-28,-496,-15966,5,8,-3,-125,-107,-1744,
3182023213,-36,-482,-15952,4,8,-4,-137,-89,-1732,
3182043202,-18,-522,-15976,4,9,-4,-143,-89,-1757,
3182063191,-28,-487,-15979,5,9,-4,-154,-107,-1744,
3182083180,-40,-490,-16003,5,8,-4,-125,-113,-1709,
3182103169,-3,-488,-15999,4,9,-5,-119,-95,-1746,
3182123158,9,-502,-15986,4,9,-4,-149,-107,-1769,
3182143147,-21,-494,-15985,3,8,-4,-125,-101,-1757,
3182163136,-6,-503,-15979,4,7,-4,-143,-101,-1746,
3182183125,-7,-480,-15985,4,8,-4,-125,-89,-1721,
3182203114,-13,-503,-15981,5,8,-5,-137,-89,-1769,
3182223103,-41,-508,-15962,5,9,-5,-143,-107,-1732,
3182243092,-27,-497,-15973,4,9,-5,-137,-95,-1732,
3182263081,-21,-491,-16000,4,9,-5,-113,-101,-1721,
3182283070,-9,-500,-15975,5,9,-4,-131,-113,-1732,
3182303059,-3,-496,-15990,5,9,-4,-149,-101,-1721,
3182323048,3,-485,-16002,5,8,-4,-137,-107,-1757,
3182343037,-27,-504,-15966,5,8,-3,-131,-83,-1732,
3182363026,-3,-524,-15972,5,8,-4,-149,-95,-1721,
3182383015,-12,-524,-15988,6,8,-3,-137,-101,-1696,
3182403004,-42,-508,-15989,5,8,-4,-131,-101,-1732,
3182422993,-21,-505,-15961,4,8,-5,-143,-101,-1780,
3182442982,-8,-522,-15965,4,10,-4,-137,-101,-1734,
3182462971,-22,-498,-15983,4,9,-4,-119,-107,-1732,
3182482960,1,-485,-15994,5,8,-5,-131,-95,-1744,
3182502949,8,-510,-16015,5,8,-4,-143,-95,-1744,
3182522938,-16,-512,-15993,4,8,-3,-143,-72,-1732,
3182542927,2,-493,-15987,5,8,-4,-125,-101,-1746,
3182562916,4,-492,-16000,4,8,-4,-137,-83,-1709,
3182582905,-11,-528,-15987,5,8,-4,-137,-113,-1757,
3182602894,-37,-493,-15955,5,9,-4,-131,-83,-1709,
3182622883,6,-490,-15970,5,9,-4,-131,-89,-1721,
3182642872,16,-491,-15979,5,8,-4,-125,-95,-1732,
3182662861,-18,-497,-15976,4,9,-5,-143,-95,-1709,
3182682850,1,-500,-15999,4,9,-5,-143,-101,-1757,
3182702839,-5,-464,-16000,5,8,-5,-131,-101,-1732,
3182722828,-4,-505,-16008,4,8,-4,-143,-95,-1721,
3182742817,-13,-515,-15992,4,8,-5,-119,-95,-1757,
3182762806,-6,-498,-15990,5,8,-4,-131,-95,-1732,
3182782795,-8,-505,-16000,5,8,-3,-143,-83,-1757,
3182802784,-32,-498,-15985,5,9,-4,-131,-89,-1757,
3182822773,0,-504,-15981,5,9,-4,-137,-101,-1732,
3182842762,-14,-502,-15988,4,9,-4,-143,-83,-1757,
3182862751,-11,-469,-15987,5,9,-4,-149,-95,-1732,
3182882740,9,-492,-15998,4,9,-5,-143,-101,-1769,
3182902729,-13,-505,-16002,4,8,-5,-137,-101,-1769,
3182922718,-26,-497,-15966,5,8,-3,-137,-101,-1732,
3182942707,-18,-494,-15997,5,8,-4,-119,-89,-1744,
3182962696,-28,-499,-15996,5,8,-5,-143,-101,-1780,
3182982685,-32,-520,-15975,5,8,-4,-143,-89,-1769,
3183002674,-15,-518,-15968,5,9,-4,-131,-95,-1709,
3183022663,7,-477,-15997,3,9,-4,-131,-107,-1744,
3183042652,-9,-464,-15967,5,9,-4,-131,-95,-1721,
3183062641,-19,-515,-15966,4,8,-5,-143,-107,-1732,
3183082630,9,-523,-16010,4,8,-4,-137,-95,-1746,
3183102619,-16,-479,-15978,5,8,-4,-149,-107,-1707,
3183122608,-23,-482,-15980,5,7,-4,-143,-95,-1744,
3183142597,0,-522,-15993,4,8,-4,-125,-89,-1721,
3183162586,-14,-526,-15973,5,8,-4,-131,-95,-1744,
3183182575,-48,-496,-15953,5,9,-4,-131,-107,-1721,
3183202564,-6,-471,-16004,5,8,-5,-131,-89,-1792,
3183222553,4,-494,-15984,5,9,-4,-149,-101,-1757,
3183242542,-6,-533,-15955,4,8,-4,-125,-89,-1721,
3183262531,-4,-490,-15994,4,8,-4,-137,-107,-1732,
3183282520,-8,-479,-16018,4,8,-5,-131,-89,-1746,
3183302509,-44,-498,-16007,5,7,-4,-125,-95,-1709,
3183322498,-22,-531,-15978,4,8,-5,-131,-101,-1746,
3183342487,-20,-509,-15985,4,9,-5,-137,-101,-1769,
3183362476,-37,-478,-15973,5,8,-3,-137,-101,-1757,
3183382465,-15,-513,-15982,5,8,-4,-149,-89,-1732,
3183402454,-12,-534,-15994,5,8,-4,-143,-83,-1732,
3183422443,-35,-517,-15990,5,9,-4,-137,-95,-1757,
3183442433,-27,-495,-15993,5,9,-5,-137,-95,-1721,
3183462422,13,-511,-16008,5,9,-3,-137,-89,-1732,
3183482411,12,-529,-15959,5,8,-4,-131,-107,-1732,
3183502400,-25,-502,-15966,5,8,-5,-137,-95,-1744,
3183522389,-15,-472,-15987,5,8,-4,-125,-101,-1757,
3183542378,-34,-509,-15993,5,8,-4,-131,-101,-1757,
3183562367,-34,-530,-15970,4,8,-4,-137,-95,-1732,
3183582356,-10,-498,-15990,5,8,-4,-125,-95,-1709,
3183602345,-14,-455,-15969,5,9,-4,-131,-119,-1757,
3183622334,-11,-493,-15986,5,8,-5,-143,-101,-1721,
3183642323,-6,-515,-15982,5,8,-5,-143,-101,-1757,
3183662312,-12,-492,-15995,5,9,-4,-137,-101,-1732,
3183682301,-23,-478,-15988,5,8,-5,-119,-95,-1757,
3183702290,-29,-499,-15984,4,8,-4,-154,-101,-1744,
3183722279,-4,-510,-15975,6,8,-5,-137,-95,-1744,
3183742268,-36,-476,-15979,4,9,-4,-143,-95,-1757,
3183762257,-38,-471,-15980,3,8,-4,-131,-101,-1744,
3183782246,0,-479,-15972,4,9,-4,-143,-83,-1721,
3183802235,-4,-519,-16002,4,9,-4,-137,-95,-1744,
3183822224,-17,-485,-15993,5,9,-5,-131,-113,-1757,
3183842213,-6,-456,-15962,5,9,-5,-137,-107,-1744,
3183862202,-5,-498,-15973,5,8,-4,-131,-95,-1696,
3183882191,-30,-525,-15969,6,8,-4,-137,-95,-1744,
3183902180,0,-488,-16007,5,7,-4,-143,-101,-1746,
3183922169,-17,-473,-15989,5,9,-4,-131,-89,-1721,
3183942158,-12,-518,-16000,4,8,-4,-131,-101,-1744,
3183962147,-31,-530,-15991,4,8,-3,-125,-107,-1746,
3183982136,3,-518,-15988,4,9,-3,-137,-77,-1746,
3184002125,-6,-470,-15992,5,9,-4,-137,-101,-1769,
3184022114,-4,-508,-16000,4,8,-4,-131,-101,-1769,
3184042103,-19,-520,-16000,4,8,-4,-137,-95,-1746,
3184062092,-18,-488,-15979,3,8,-4,-131,-125,-1757,
3184082081,-23,-481,-15988,5,8,-3,-131,-95,-1721,
3184102070,-35,-534,-15964,4,8,-4,-131,-95,-1794,
3184122059,-36,-511,-15968,5,9,-4,-125,-89,-1732,
3184142048,-22,-481,-15966,4,9,-4,-131,-95,-1744,
3184162037,-11,-497,-16005,5,9,-4,-149,-107,-1757,
3184182026,-22,-518,-15979,5,9,-4,-143,-113,-1757,
3184202015,-26,-505,-16005,5,8,-4,-131,-95,-1721,
3184222004,-8,-502,-16003,5,8,-5,-143,-113,-1769,
3184241993,-32,-511,-15978,5,8,-4,-119,-89,-1744,
3184261982,-28,-504,-15953,5,8,-4,-137,-107,-1732,
3184281971,-8,-511,-16010,5,8,-5,-131,-125,-1757,
3184301960,-19,-533,-15995,5,7,-4,-137,-89,-1684,
3184321949,-25,-516,-15987,4,8,-4,-143,-107,-1757,
3184341938,3,-496,-16007,5,9,-4,-143,-95,-1721,
3184361927,-15,-522,-16006,4,8,-3,-154,-95,-1744,
3184381916,-15,-528,-15972,4,8,-4,-137,-89,-1721,
3184401905,-28,-507,-15977,5,8,-4,-143,-89,-1698,
3184421894,-3,-498,-15997,6,8,-5,-131,-95,-1746,
3184441883,-1,-499,-15992,5,8,-4,-143,-101,-1746,
3184461872,-36,-524,-15972,5,7,-3,-137,-95,-1757,
3184481861,-25,-495,-15975,5,8,-4,-119,-95,-1709,
3184501850,-25,-498,-15985,4,8,-4,-131,-101,-1732,
3184521839,-31,-519,-15966,6,8,-4,-119,-77,-1732,
3184541828,-13,-525,-15983,5,8,-4,-143,-95,-1698,
3184561817,7,-505,-15969,5,7,-4,-125,-89,-1744,
3184581806,-1,-512,-15993,6,9,-4,-137,-89,-1757,
3184601795,-20,-519,-15983,4,9,-4,-143,-89,-1721,
3184621784,-28,-504,-15989,5,8,-4,-125,-101,-1757,
3184641773,-14,-508,-15988,5,8,-4,-119,-95,-1746,
3184661762,-21,-504,-15970,4,8,-4,-137,-101,-1757,
3184681751,-11,-499,-16006,4,8,-4,-131,-101,-1744,
3184701740,-21,-496,-16003,5,8,-3,-137,-101,-1746,
3184721729,-28,-537,-15975,5,8,-5,-137,-95,-1744,
3184741718,-21,-506,-15985,4,8,-4,-143,-113,-1709,
3184761707,-11,-506,-15979,5,8,-3,-137,-101,-1744,
3184781696,-14,-514,-15989,5,7,-4,-131,-95,-1732,
3184801685,-27,-514,-15989,4,8,-4,-143,-101,-1757,
3184821674,-29,-505,-15994,4,7,-4,-125,-101,-1769,
3184841663,-2,-515,-15983,4,8,-5,-125,-101,-1721,
3184861652,-1,-510,-15977,5,9,-3,-149,-101,-1732,
3184881641,-29,-480,-15971,5,7,-4,-137,-89,-1721,
3184901631,-8,-488,-15977,5,8,-5,-119,-101,-1744,
3184921620,-13,-527,-15995,5,10,-5,-131,-101,-1757,
3184941609,-17,-530,-15996,5,9,-4,-143,-95,-1721,
3184961598,-43,-503,-15968,5,8,-4,-125,-95,-1757,
3184981587,-3,-482,-16014,6,8,-4,-131,-113,-1744,
3185001576,0,-519,-15988,5,7,-4,-137,-89,-1744,
3185021565,-25,-525,-15984,5,8,-4,-131,-95,-1769,
3185041554,-8,-484,-15991,5,9,-4,-131,-101,-1721,
3185061543,8,-480,-15991,5,8,-5,-154,-83,-1744,
3185081532,-7,-516,-15973,4,8,-4,-131,-95,-1744,
3185101521,-31,-526,-15989,5,8,-4,-137,-83,-1732,
3185121510,16,-497,-16024,5,8,-4,-143,-89,-1732,
3185141499,-12,-494,-15982,5,8,-4,-131,-101,-1757,
3185161488,-13,-490,-15979,4,8,-5,-131,-95,-1780,
3185181477,13,-488,-16001,5,9,-5,-131,-89,-1757,
3185201466,8,-514,-15980,5,8,-4,-137,-89,-1721,
3185221455,-39,-513,-15983,3,8,-4,-131,-83,-1732,
3185241444,-33,-534,-15971,4,8,-4,-143,-107,-1746,
3185261433,-20,-512,-15967,5,7,-4,-143,-113,-1744,
3185281422,-26,-498,-15987,4,8,-5,-137,-89,-1732,
3185301411,-22,-505,-15988,5,8,-5,-131,-101,-1744,
3185321400,-19,-503,-15986,4,9,-5,-131,-107,-1757,
3185341389,-32,-535,-15966,4,8,-5,-137,-95,-1769,
3185361378,-6,-509,-15986,5,8,-4,-119,-95,-1757,
3185381367,2,-485,-15990,5,9,-4,-149,-95,-1732,
3185401356,-8,-498,-15994,5,9,-4,-149,-89,-1732,
3185421345,-24,-509,-15996,5,8,-4,-143,-107,-1769,
3185441334,-20,-498,-16007,4,8,-5,-131,-101,-1732,
3185461323,-34,-488,-15977,5,8,-4,-113,-101,-1755,
3185481312,-2,-499,-16001,4,8,-4,-137,-101,-1721,
3185501301,-6,-514,-16015,5,8,-5,-131,-107,-1792,
3185521290,-22,-531,-15993,5,7,-4,-143,-101,-1744,
3185541279,-17,-489,-15978,5,7,-5,-143,-83,-1732,
3185561268,-3,-514,-15999,4,8,-5,-119,-83,-1732,
3185581257,-39,-510,-15972,5,8,-4,-137,-95,-1709,
3185601246,-15,-493,-15978,5,8,-3,-137,-83,-1721,
3185621235,-32,-508,-15977,3,8,-4,-137,-101,-1757,
3185641224,-21,-502,-15986,5,8,-4,-149,-107,-1744,
3185661213,-7,-512,-16002,4,8,-5,-131,-101,-1757,
3185681202,-18,-512,-15985,5,8,-4,-131,-107,-1732,
3185701191,-7,-502,-15988,5,8,-4,-137,-101,-1732,
3185721180,-11,-502,-16000,4,9,-4,-137,-95,-1757,
3185741169,-25,-497,-15977,5,9,-5,-125,-101,-1744,
3185761158,-1,-498,-15992,5,8,-4,-143,-101,-1757,
3185781147,-23,-499,-15994,4,7,-4,-125,-89,-1744,
3185801136,-16,-513,-15997,4,8,-4,-125,-83,-1732,
3185821125,-8,-545,-15967,6,8,-5,-131,-107,-1744,
3185841114,-36,-516,-15983,5,8,-4,-131,-113,-1780,
3185861103,-23,-469,-15978,5,8,-4,-125,-95,-1696,
3185881092,-14,-517,-15987,5,8,-4,-131,-77,-1721,
3185901081,-21,-524,-15988,4,7,-4,-125,-83,-1709,
3185921070,-23,-492,-15991,5,9,-5,-125,-89,-1769,
3185941059,14,-486,-15992,5,9,-5,-125,-83,-1732,
3185961048,-2,-488,-15984,3,8,-5,-149,-107,-1744,
3185981037,-9,-522,-16001,3,8,-4,-125,-95,-1744,
3186001026,-10,-490,-15994,5,8,-5,-154,-77,-1732,
3186021015,-18,-499,-15999,5,8,-5,-149,-95,-1721,
3186041004,-30,-514,-15981,4,8,-3,-137,-101,-1732,
3186060993,-4,-505,-15995,5,8,-3,-125,-95,-1732,
3186080982,-12,-475,-16016,5,8,-5,-131,-95,-1744,
3186100971,-28,-466,-16000,4,8,-4,-131,-95,-1732,
3186120960,-10,-528,-15970,4,8,-4,-131,-101,-1732,
3186140949,-22,-524,-15988,5,8,-5,-131,-107,-1744,
3186160938,-32,-480,-15989,5,9,-5,-119,-95,-1744,
3186180927,-25,-506,-15995,4,9,-5,-137,-119,-1757,
3186200916,-24,-516,-15984,4,8,-4,-131,-101,-1721,
3186220905,-24,-523,-15961,4,7,-4,-137,-89,-1744,
3186240894,3,-499,-15988,4,8,-4,-131,-95,-1732,
3186260883,-9,-519,-15990,6,7,-4,-125,-101,-1744,
3186280872,-31,-524,-15991,4,8,-4,-137,-95,-1757,
3186300861,-13,-492,-15985,4,8,-4,-125,-95,-1780,
3186320850,-22,-497,-15993,5,8,-5,-125,-95,-1757,
3186340839,-26,-512,-15991,5,8,-5,-125,-95,-1757,
3186360829,-19,-511,-15981,4,8,-5,-131,-83,-1755,
3186380818,22,-493,-15993,5,7,-5,-131,-113,-1732,
3186400807,-23,-505,-15989,5,9,-4,-125,-83,-1744,
3186420796,-43,-488,-15979,5,9,-5,-131,-107,-1732,
3186440785,-7,-488,-15973,4,8,-4,-137,-89,-1757,
3186460774,5,-497,-15986,4,8,-4,-113,-89,-1744,
3186480763,-10,-503,-15985,4,8,-4,-125,-83,-1732,
3186500752,9,-484,-15967,5,9,-4,-137,-107,-1757,
3186520741,9,-491,-15994,6,8,-4,-125,-95,-1721,
3186540730,-36,-524,-15978,4,8,-4,-125,-113,-1757,
3186560719,-28,-500,-15974,4,9,-4,-137,-101,-1744,
3186580708,3,-485,-16008,4,8,-4,-125,-89,-1744,
3186600697,0,-528,-15974,6,8,-4,-154,-77,-1709,
3186620686,-25,-517,-15966,6,8,-4,-149,-95,-1709,
3186640675,12,-516,-16002,4,8,-4,-137,-89,-1721,
3186660664,0,-502,-15994,3,8,-5,-137,-101,-1732,
3186680653,-58,-516,-15980,5,8,-4,-131,-89,-1721,
3186700642,12,-515,-15984,5,7,-4,-137,-95,-1732,
3186720631,-10,-506,-15984,5,9,-4,-143,-89,-1721,
3186740620,-46,-494,-15961,4,8,-5,-131,-107,-1744,
3186760609,-12,-504,-16003,5,8,-4,-125,-107,-1744,
3186780598,8,-504,-15997,4,8,-5,-125,-101,-1721,
3186800587,-29,-502,-15971,5,7,-5,-137,-83,-1732,
3186820576,-28,-477,-15979,5,8,-5,-137,-101,-1744,
3186840565,21,-508,-16016,5,9,-5,-125,-95,-1732,
3186860554,-31,-526,-15998,5,8,-4,-131,-107,-1780,
3186880543,-21,-513,-15989,4,8,-5,-131,-101,-1744,
3186900532,16,-490,-15998,4,9,-5,-137,-101,-1721,
3186920521,-34,-504,-15982,4,8,-5,-143,-89,-1757,
3186940510,-23,-513,-15986,4,8,-5,-125,-83,-1744,
3186960499,1,-481,-16012,5,8,-5,-125,-95,-1732,
3186980488,-24,-479,-15988,5,8,-4,-137,-83,-1721,
3187000477,-29,-511,-15964,5,8,-4,-125,-101,-1757,
3187020466,0,-517,-15985,6,9,-4,-137,-95,-1757,
3187040455,7,-510,-15986,5,8,-5,-143,-107,-1744,
3187060444,-31,-500,-15983,4,8,-4,-125,-95,-1744,
3187080433,-30,-492,-15986,5,8,-4,-143,-95,-1755,
3187100422,4,-514,-15986,5,9,-4,-131,-95,-1696,
3187120411,-10,-522,-16001,4,8,-4,-125,-83,-1698,
3187140400,-18,-516,-15974,5,9,-4,-143,-107,-1709,
3187160389,0,-515,-15999,4,10,-4,-131,-95,-1744,
3187180378,2,-498,-15989,4,9,-3,-137,-95,-1732,
3187200367,-22,-510,-15970,5,8,-4,-119,-89,-1721,
3187220356,-3,-508,-15991,5,8,-5,-137,-95,-1744,
3187240345,-2,-484,-16025,5,8,-3,-131,-95,-1732,
3187260334,-46,-505,-15995,5,8,-3,-149,-95,-1732,
3187280323,-5,-516,-16010,4,8,-4,-125,-101,-1744,
3187300312,-8,-509,-15990,5,8,-4,-119,-107,-1744,
3187320301,-10,-513,-15980,5,9,-4,-137,-107,-1732,
3187340290,-11,-508,-15971,4,8,-4,-131,-89,-1721,
3187360279,6,-513,-16002,4,8,-4,-137,-101,-1757,
3187380268,-2,-508,-15985,4,8,-4,-137,-83,-1769,
3187400257,-27,-492,-15971,4,9,-4,-131,-95,-1744,
3187420246,-2,-507,-15986,4,8,-5,-125,-89,-1721,
3187440235,-8,-510,-15990,5,8,-4,-143,-95,-1744,
3187460224,-30,-508,-15968,5,8,-5,-143,-95,-1732,
3187480213,-19,-504,-16009,4,9,-5,-143,-107,-1744,
3187500202,16,-514,-16020,5,8,-4,-143,-95,-1769,
3187520191,-39,-513,-15986,4,9,-4,-143,-95,-1732,
3187540180,-34,-522,-16010,4,7,-5,-137,-101,-1744,
3187560169,-6,-488,-16016,4,8,-5,-137,-101,-1721,
3187580158,-24,-509,-15985,4,8,-5,-131,-101,-1732,
3187600147,-37,-502,-15985,5,8,-5,-137,-95,-1732,
3187620136,1,-492,-16004,4,8,-5,-131,-95,-1732,
3187640125,-19,-485,-15990,4,8,-4,-137,-101,-1732,
3187660114,-34,-505,-15984,5,8,-4,-131,-107,-1721,
3187680103,6,-534,-16014,5,8,-5,-143,-107,-1721,
3187700092,-10,-491,-16017,5,8,-5,-119,-101,-1732,
3187720081,-38,-466,-15984,6,9,-5,-125,-107,-1744,
3187740070,-23,-510,-15989,5,8,-4,-131,-107,-1757,
3187760059,-12,-509,-15991,4,8,-4,-125,-95,-1732,
3187780048,-29,-498,-15989,5,8,-4,-137,-95,-1757,
3187800037,-16,-509,-15979,5,8,-4,-137,-95,-1744,
3187820026,-12,-505,-15968,5,7,-5,-143,-95,-1732,
3187840016,-14,-488,-15969,5,8,-4,-137,-113,-1707,
3187860005,10,-495,-15990,5,8,-4,-125,-113,-1755,
3187879994,-4,-517,-15977,4,8,-4,-137,-101,-1709,
3187899983,-37,-510,-15981,4,7,-5,-125,-89,-1732,
3187919972,-10,-519,-15985,4,8,-5,-125,-101,-1744,
3187939961,3,-492,-15985,5,8,-3,-143,-89,-1744,
3187959950,-13,-477,-15972,4,8,-4,-131,-107,-1696,
3187979939,3,-505,-15993,4,8,-5,-143,-107,-1755,
3187999928,-6,-506,-15995,5,7,-4,-131,-83,-1744,
3188019917,-38,-487,-15974,5,8,-5,-143,-89,-1769,
3188039906,-25,-462,-15980,4,8,-4,-125,-101,-1769,
3188059895,6,-493,-16002,5,8,-3,-125,-107,-1732,
3188079884,-26,-489,-15989,5,8,-4,-137,-95,-1744,
3188099873,-23,-500,-15958,5,9,-4,-125,-101,-1707,
3188119862,8,-479,-16000,4,8,-4,-131,-101,-1767,
3188139851,-9,-497,-15974,4,8,-4,-131,-95,-1696,
3188159840,-22,-493,-15989,5,8,-4,-137,-89,-1732,
3188179829,2,-495,-16008,6,8,-4,-131,-77,-1696,
3188199818,-8,-516,-15979,4,8,-4,-131,-95,-1757,
3188219807,-15,-495,-16000,5,9,-5,-143,-95,-1684,
3188239796,-3,-539,-16021,5,9,-5,-131,-95,-1744,
3188259785,-14,-507,-16002,6,8,-4,-125,-89,-1744,
3188279774,-29,-479,-15966,5,9,-5,-125,-101,-1744,
3188299763,1,-486,-15986,5,8,-6,-131,-89,-1744,
3188319752,-18,-521,-15996,6,8,-4,-125,-95,-1732,
3188339741,-39,-508,-15974,5,9,-4,-137,-95,-1696,
3188359730,-15,-467,-15999,4,7,-4,-131,-95,-1744,
3188379719,13,-497,-16015,4,8,-4,-125,-101,-1769,
3188399708,-20,-535,-15992,4,9,-5,-131,-107,-1744,
3188419697,-27,-490,-16002,5,9,-4,-143,-95,-1757,
3188439686,-7,-484,-15994,5,9,-5,-137,-101,-1767,
3188459675,-22,-494,-15991,5,7,-5,-137,-95,-1721,
3188479664,-21,-517,-15981,5,8,-5,-131,-107,-1732,
3188499653,4,-501,-15991,6,8,-4,-137,-95,-1732,
3188519642,-20,-488,-15996,4,8,-5,-137,-107,-1755,
3188539631,-32,-508,-16004,4,9,-4,-143,-89,-1757,
3188559620,-16,-512,-15970,5,9,-4,-125,-107,-1732,
3188579609,-20,-499,-15986,5,9,-4,-131,-101,-1757,
3188599598,6,-471,-15998,5,9,-4,-137,-101,-1732,
3188619587,-9,-506,-16010,5,9,-4,-137,-89,-1757,
3188639576,-4,-515,-15996,5,8,-4,-137,-107,-1744,
3188659565,-30,-503,-15988,6,8,-5,-143,-101,-1719,
3188679554,20,-479,-15990,5,8,-4,-137,-101,-1744,
3188699543,-19,-458,-15992,4,8,-4,-137,-95,-1732,
3188719532,-19,-504,-15977,5,8,-4,-143,-107,-1744,
3188739521,11,-512,-15987,4,9,-5,-137,-95,-1757,
3188759510,-9,-479,-16000,5,9,-5,-149,-89,-1757,
3188779499,-15,-477,-15995,5,9,-4,-137,-101,-1732,
3188799488,2,-504,-15982,4,9,-4,-149,-101,-1744,
3188819477,-2,-535,-15982,4,8,-3,-125,-95,-1755,
3188839466,-37,-482,-15970,5,9,-5,-131,-95,-1721,
3188859455,-2,-480,-16014,5,9,-5,-143,-107,-1732,
3188879444,8,-502,-16017,5,9,-3,-125,-89,-1792,
3188899433,-1,-491,-15964,5,9,-4,-137,-107,-1744,
3188919422,-3,-488,-15983,5,8,-5,-149,-101,-1744,
3188939411,9,-468,-16009,5,9,-4,-143,-113,-1767,
3188959400,-26,-527,-15971,6,8,-4,-125,-95,-1709,
3188979389,-23,-524,-15973,5,8,-4,-143,-101,-1719,
3188999378,-18,-497,-15970,4,8,-4,-131,-83,-1755,
3189019367,-30,-480,-15980,4,8,-5,-149,-107,-1719,
3189039356,-30,-510,-15986,4,9,-4,-137,-101,-1744,
3189059345,-5,-523,-16011,5,8,-3,-154,-101,-1732,
3189079334,-24,-474,-15990,5,8,-4,-137,-89,-1744,
3189099323,-23,-489,-15979,5,8,-4,-125,-101,-1732,
3189119312,-2,-492,-15973,5,8,-5,-131,-89,-1709,
3189139301,-4,-513,-15983,5,8,-5,-149,-83,-1732,
3189159290,-21,-498,-16001,4,7,-4,-125,-107,-1744,
3189179279,-15,-516,-15979,5,7,-5,-125,-95,-1719,
3189199268,-4,-523,-15983,5,8,-4,-143,-101,-1707,
3189219257,-6,-519,-15999,5,8,-4,-143,-89,-1755,
3189239246,-2,-483,-15968,5,8,-4,-149,-101,-1755,
3189259235,-4,-490,-15974,5,9,-5,-131,-101,-1780,
3189279224,-24,-494,-15981,6,9,-4,-154,-101,-1719,
3189299214,0,-493,-15988,5,8,-4,-125,-89,-1744,
3189319203,-13,-507,-15981,4,8,-4,-143,-107,-1780,
3189339192,-25,-511,-15981,5,8,-4,-125,-95,-1755,
3189359181,-43,-486,-15965,5,8,-4,-137,-95,-1732,
3189379170,11,-486,-16026,5,8,-4,-143,-113,-1744,
3189399159,-21,-525,-15995,5,8,-4,-143,-95,-1755,
3189419148,-27,-499,-15985,4,8,-4,-149,-95,-1744,
3189439137,-2,-479,-15997,4,8,-4,-143,-83,-1755,
3189459126,-9,-517,-15980,4,8,-5,-137,-95,-1732,
3189479115,-28,-533,-15997,4,9,-4,-137,-113,-1744,
3189499104,-15,-495,-15967,5,9,-4,-137,-101,-1744,
3189519093,-17,-477,-15985,5,8,-4,-143,-83,-1780,
3189539082,-45,-512,-15992,6,8,-5,-125,-89,-1732,
3189559071,-22,-532,-15970,5,8,-4,-137,-95,-1744,
3189579060,-10,-482,-16007,4,8,-4,-149,-107,-1732,
3189599049,-26,-468,-15994,5,8,-4,-137,-95,-1767,
3189619038,-35,-498,-15951,5,8,-4,-131,-101,-1744,
3189639027,-15,-516,-15989,5,9,-4,-131,-83,-1721,
3189659016,-8,-531,-15999,4,9,-5,-119,-101,-1719,
3189679005,-54,-503,-15969,4,9,-4,-143,-101,-1744,
3189698994,-13,-513,-15984,5,8,-4,-143,-95,-1744,
3189718983,10,-525,-15999,5,8,-4,-137,-101,-1769,
3189738972,-16,-521,-15966,5,8,-5,-143,-89,-1732,
3189758961,-7,-469,-15990,4,9,-4,-143,-101,-1744,
3189778950,0,-511,-15992,4,8,-4,-137,-101,-1707,
3189798939,-14,-512,-15992,6,9,-4,-137,-101,-1732,
3189818928,-16,-502,-16004,5,9,-5,-125,-95,-1732,
3189838917,-3,-497,-16016,5,9,-4,-137,-101,-1755,
3189858906,-10,-496,-15994,6,8,-4,-125,-89,-1732,
3189878895,-20,-529,-15967,5,8,-5,-143,-101,-1719,
3189898884,-6,-495,-16005,4,8,-4,-149,-101,-1732,
3189918873,-12,-496,-15981,3,8,-4,-137,-101,-1755,
3189938862,-4,-522,-15959,3,9,-4,-137,-101,-1744,
3189958851,-14,-517,-15999,4,8,-4,-143,-101,-1732,
3189978840,-17,-495,-16005,5,8,-4,-131,-95,-1744,
3189998829,-15,-508,-15998,5,8,-4,-154,-107,-1767,
