Timestamp(us), ax, ay, az, gx, gy, gz
3891641082,-4395,-14739,-3224,6,497,-199
3891661071,-4413,-14571,-3754,17,565,-136
3891681060,-3956,-14881,-3801,17,604,-108
3891701049,-2983,-15511,-3736,17,632,-103
3891721038,-1603,-15755,-4078,15,602,-110
3891741027,-1341,-15882,-4773,-14,635,-127
3891761016,-1557,-15777,-4025,-32,780,-169
3891781005,-3048,-15948,-3675,-51,1004,-188
3891800994,-3602,-15842,-3602,-80,1478,-135
3891820983,-2275,-15418,-2859,-43,1586,-91
3891840972,-2971,-15793,-1790,21,1103,-91
3891860961,-4801,-16200,-2232,62,525,-108
3891880950,-4962,-16271,-3791,53,384,-109
3891900939,-4230,-16835,-4465,73,572,-78
3891920928,-3703,-17208,-4554,64,657,-43
3891940917,-2547,-16899,-4895,-13,494,-58
3891960906,-3419,-17180,-5310,-122,226,-71
3891980895,-4384,-17187,-5778,-244,123,-20
3892000885,-3704,-17093,-4901,-283,245,-9
3892020874,-2490,-16673,-4265,-267,385,8
3892040863,-2442,-16214,-4319,-262,283,30
3892060852,-1746,-15881,-2847,-248,54,-19
3892080841,-2813,-15603,-3417,-144,-110,-9
3892100830,-2537,-14921,-5886,-81,-81,36
3892120819,-2282,-14185,-6041,-68,-14,50
3892140808,-2198,-14228,-5409,-44,-92,32
3892160797,-2459,-14736,-6279,-56,-204,63
3892180786,-2938,-15135,-6112,-91,-155,118
3892200775,-3076,-15639,-4625,-107,-113,151
3892220764,-3711,-16067,-3445,-93,-71,147
3892240753,-3941,-16303,-3013,-71,19,137
3892260742,-3438,-16262,-3103,-71,56,123
3892280731,-3018,-16194,-2870,-90,-9,85
3892300720,-3027,-15783,-2976,-84,-105,29
3892320709,-2984,-15735,-4560,-97,-73,15
3892340698,-2111,-15535,-5924,-140,-7,29
3892360687,-2454,-15761,-5242,-160,-49,39
3892380676,-3263,-15962,-5552,-153,-118,32
3892400665,-3519,-16000,-5816,-158,-120,27
3892420654,-3533,-16038,-5445,-178,-99,16
3892440643,-3212,-16024,-5428,-202,-48,14
3892460632,-3424,-16106,-5082,-202,56,38
3892480621,-3675,-15611,-5885,-204,103,53
3892500610,-3922,-15118,-7091,-239,77,53
3892520599,-3940,-15372,-7019,-304,29,28
3892540588,-3871,-15368,-6540,-363,-19,-8
3892560577,-3960,-15202,-7244,-417,-12,-15
3892580566,-3649,-14792,-7767,-472,-7,-21
3892600555,-4235,-14653,-7954,-543,-54,-38
3892620544,-4650,-15042,-8516,-652,-42,-42
3892640533,-4288,-15596,-8169,-796,44,-33
3892660522,-4565,-15996,-7966,-978,167,-12
3892680511,-5049,-16165,-8397,-1114,262,17
3892700500,-4733,-15881,-9315,-1181,344,67
3892720489,-4157,-15496,-10009,-1256,425,138
3892740478,-4433,-14931,-10974,-1342,507,223
3892760467,-4587,-14267,-11720,-1426,560,293
3892780456,-4103,-13931,-12342,-1520,621,357
3892800445,-3937,-13815,-12717,-1628,669,423
3892820434,-3744,-13734,-13250,-1750,643,476
3892840423,-4572,-13758,-13394,-1889,582,496
3892860412,-3962,-13811,-13665,-2047,552,494
3892880401,-3671,-13621,-13882,-2206,459,499
3892900390,-3572,-12720,-14805,-2337,428,558
3892920379,-2923,-12272,-15422,-2435,434,633
3892940368,-3408,-11989,-15667,-2532,333,665
3892960357,-3676,-11691,-16042,-2665,278,666
3892980346,-3200,-11314,-16518,-2826,238,642
3893000335,-2928,-10226,-16734,-2982,150,618
3893020324,-2756,-8731,-16758,-3110,71,615
3893040313,-2199,-7286,-16738,-3196,75,622
3893060302,-1664,-5892,-16661,-3263,19,603
3893080291,-2155,-4794,-16162,-3344,-41,581
3893100280,-2237,-3409,-15846,-3409,-22,553
3893120269,-2221,-2196,-15392,-3489,-21,515
3893140258,-2566,-930,-14540,-3518,3,484
3893160247,-1510,-95,-14033,-3529,-29,444
3893180236,-2379,886,-13142,-3540,-69,391
3893200225,-2395,1703,-13183,-3520,-32,329
3893220214,-2342,2232,-12124,-3460,17,261
3893240203,-2334,2640,-9951,-3360,-46,183
3893260192,-2681,4265,-10467,-3222,-55,140
3893280181,-2863,4861,-9206,-3025,-19,82
3893300170,-2673,5736,-8379,-2855,-36,30
3893320159,-3302,7006,-8451,-2673,-6,5
3893340148,-2776,7233,-6235,-2385,-40,-19
3893360137,-3105,8033,-5295,-2057,-137,-4
3893380126,-3558,9147,-5418,-1766,-105,17
3893400115,-3074,9698,-4903,-1518,-12,36
3893420104,-2650,10136,-3805,-1244,-82,60
3893440093,-3237,10399,-1627,-902,-255,87
3893460083,-3102,11343,-1903,-551,-249,137
3893480072,-2973,12084,-3665,-262,-147,158
3893500061,-3606,11961,-3834,16,-137,146
3893520050,-3871,12374,-4993,276,-179,125
3893540039,-3861,12330,-4223,524,-251,72
3893560028,-3555,13000,-4016,777,-302,22
3893580017,-3188,13153,-3358,1063,-365,-13
3893600006,-3293,13011,-3493,1362,-400,-34
3893619995,-3239,12690,-4763,1656,-419,-58
3893639984,-3760,11941,-5179,1946,-491,-110
3893659973,-3662,10914,-4752,2239,-549,-172
3893679962,-2479,10361,-6309,2506,-521,-251
3893699951,-2739,9033,-6549,2723,-503,-340
3893719940,-3441,7079,-6127,2962,-458,-432
3893739929,-3401,5432,-7296,3214,-378,-521
3893759918,-3208,3613,-8105,3424,-354,-621
3893779907,-2908,2511,-10765,3532,-225,-705
3893799896,-4413,137,-10415,3609,54,-746
3893819885,-2517,-1602,-13400,3625,166,-779
3893839874,-4198,-3352,-12076,3586,57,-835
3893859863,-4541,-4282,-12941,3512,241,-821
3893879852,-2972,-4026,-15264,3498,618,-753
3893899841,-2446,-5923,-15491,3449,643,-748
3893919830,-3347,-7806,-16735,3376,582,-728
3893939819,-2985,-9543,-15293,3291,541,-697
3893959808,-3329,-9928,-15513,3133,315,-723
3893979797,-2563,-9046,-18525,3122,458,-687
3893999786,-3501,-11107,-15644,3043,522,-652
3894019775,-3151,-11830,-16816,2901,416,-624
3894039764,-3021,-12380,-15009,2785,367,-579
3894059753,-2561,-12429,-14455,2671,187,-566
3894079742,-3181,-12269,-15598,2633,111,-544
3894099731,-3966,-13450,-14529,2535,99,-501
3894119720,-3794,-14060,-14903,2373,100,-439
3894139709,-3461,-15012,-13723,2169,17,-394
3894159698,-4251,-15402,-13083,1957,-131,-384
3894179687,-3963,-15694,-13133,1833,-114,-372
3894199676,-4387,-16593,-12239,1659,-140,-349
3894219665,-4828,-16365,-13386,1425,-146,-322
3894239654,-5055,-15991,-13287,1149,-86,-275
3894259643,-4741,-16346,-13092,863,-79,-243
3894279632,-4715,-15947,-13309,634,-53,-176
3894299621,-5001,-15433,-13683,361,-8,-106
3894319610,-5318,-15216,-13604,89,60,-28
3894339599,-4654,-15077,-13468,-182,138,57
3894359588,-4728,-14738,-14004,-430,155,147
3894379577,-5156,-14211,-15025,-666,195,248
3894399566,-4764,-14184,-15264,-953,261,335
3894419555,-4732,-13964,-15378,-1259,303,420
3894439544,-4244,-13797,-15699,-1506,354,514
3894459533,-4158,-13827,-15763,-1749,354,603
3894479522,-3803,-13865,-15964,-2010,339,677
3894499511,-3588,-13808,-16061,-2268,310,740
3894519500,-3492,-13660,-16290,-2502,293,783
3894539489,-3559,-13504,-16453,-2707,279,818
3894559478,-3125,-13564,-16423,-2905,209,822
3894579467,-3381,-12952,-16645,-3100,66,811
3894599456,-3033,-12219,-16671,-3261,24,810
3894619445,-3299,-11049,-17095,-3408,15,807
3894639434,-2869,-10314,-16531,-3536,-15,782
3894659423,-2833,-8970,-16517,-3645,-133,745
3894679412,-2820,-7558,-15885,-3699,-162,734
3894699401,-2823,-6628,-14055,-3709,-187,710
3894719390,-3232,-4621,-13587,-3645,-287,671
3894739379,-2982,-3101,-12550,-3562,-273,636
3894759368,-2723,-1779,-12453,-3504,-232,598
3894779357,-2930,-641,-11915,-3430,-221,554
3894799346,-2717,463,-12854,-3360,-256,500
3894819335,-3174,1215,-12623,-3290,-208,449
3894839324,-2597,1581,-11753,-3234,-96,382
3894859313,-3064,2860,-11907,-3121,-133,303
3894879302,-3038,3399,-10939,-2972,-143,227
3894899291,-2405,4028,-9258,-2797,-91,175
3894919281,-2979,5136,-6748,-2612,-189,138
3894939270,-3081,7208,-7209,-2455,-82,153
3894959259,-3359,8533,-6287,-2276,106,162
3894979248,-3101,9503,-5733,-2136,215,161
3894999237,-3172,11090,-6360,-2007,303,160
3895019226,-3476,11955,-5687,-1805,268,111
3895039215,-3692,12830,-5807,-1602,201,56
3895059204,-3307,12716,-3005,-1386,208,-12
3895079193,-4017,13178,-1071,-989,-5,-68
3895099182,-4499,13571,-474,-501,-73,-78
3895119171,-3870,13133,-846,-48,28,-51
3895139160,-4277,12784,-2375,341,44,-36
3895159149,-4304,12340,-3472,680,8,-33
3895179138,-4167,11878,-2999,995,-141,-33
3895199127,-4021,11777,-2784,1310,-335,-66
3895219116,-3777,11570,-2760,1613,-421,-121
3895239105,-3356,10980,-2586,1897,-371,-160
3895259094,-3244,10267,-3206,2222,-426,-215
3895279083,-3757,9705,-4402,2584,-516,-278
3895299072,-1582,9158,-6661,2845,-378,-326
3895319061,-2826,7749,-5907,3056,-450,-425
3895339050,-2459,6475,-6789,3333,-616,-570
3895359039,-2535,4903,-8642,3601,-664,-711
3895379028,-3090,2352,-8168,3761,-528,-850
3895399017,-3863,-21,-8602,3856,-468,-961
3895419006,-3976,-1340,-11680,3977,-494,-1067
3895438995,-4270,-4850,-9606,4021,-375,-1168
3895458984,-4697,-6962,-10816,3950,-300,-1208
3895478973,-5971,-6809,-13664,3979,-178,-1241
3895498962,-5650,-9105,-13497,4041,202,-1243
3895518951,-4401,-11935,-14445,3988,292,-1251
3895538940,-5100,-12718,-15662,3839,215,-1237
3895558929,-6043,-13763,-15139,3716,155,-1244
3895578918,-5426,-14656,-16402,3684,299,-1219
3895598907,-4656,-16731,-14026,3582,261,-1187
3895618896,-5407,-17305,-14521,3316,70,-1180
3895638885,-5743,-16020,-14545,3113,206,-1148
3895658874,-4775,-16607,-13912,2974,214,-1169
3895678863,-5029,-17383,-12766,2846,123,-1170
3895698852,-4629,-17104,-13826,2683,12,-1139
3895718841,-4748,-16286,-14154,2554,-4,-1076
3895738830,-5741,-16562,-13946,2420,88,-978
3895758819,-4911,-17625,-11328,2182,135,-872
3895778808,-5284,-17491,-11316,1899,-102,-813
3895798797,-5060,-16753,-11231,1706,-184,-760
3895818786,-5485,-17117,-10830,1482,-190,-690
3895838775,-5876,-17039,-11038,1214,-58,-555
3895858764,-6314,-16538,-11845,873,45,-435
3895878753,-5884,-16539,-11745,509,123,-314
3895898742,-5998,-16899,-11139,178,129,-188
3895918731,-6565,-16681,-11457,-161,107,-82
3895938720,-6627,-16502,-11870,-499,177,42
3895958709,-6091,-16475,-12347,-791,276,201
3895978698,-6165,-16071,-13422,-1080,305,359
3895998687,-6540,-16324,-13353,-1364,365,521
3896018676,-6120,-16693,-13441,-1623,387,675
3896038665,-6179,-16581,-13721,-1858,323,796
3896058654,-6152,-16501,-14057,-2133,234,896
3896078643,-5985,-16384,-14169,-2408,219,1010
3896098632,-5455,-16439,-14157,-2639,190,1111
3896118621,-5285,-16201,-14697,-2839,106,1205
3896138610,-5269,-15972,-15001,-3026,29,1280
3896158599,-5502,-15746,-15440,-3217,-74,1313
3896178588,-5092,-15427,-15951,-3397,-188,1314
3896198577,-5284,-15123,-15899,-3567,-290,1335
3896218566,-4846,-14379,-16177,-3734,-323,1388
3896238555,-4349,-13321,-16156,-3900,-319,1433
3896258544,-4563,-12284,-15098,-4026,-414,1454
3896278533,-4694,-10478,-14996,-4116,-484,1495
3896298522,-4333,-8197,-13866,-4162,-526,1553
3896318511,-4225,-6114,-12889,-4155,-657,1595
3896338500,-5174,-3324,-13026,-4150,-641,1616
3896358489,-4951,-2231,-12372,-4144,-353,1550
3896378479,-4685,-776,-12444,-4137,-124,1422
3896398468,-4323,-94,-10591,-4093,-79,1276
3896418457,-4058,1133,-9272,-4027,9,1156
3896438446,-4111,2676,-9978,-3868,171,1030
3896458435,-3491,2986,-6794,-3648,232,862
3896478424,-4229,4388,-6873,-3417,280,713
3896498413,-3954,5562,-6528,-3118,170,570
3896518402,-4221,6515,-4519,-2749,117,461
3896538391,-4314,7969,-3882,-2383,321,375
3896558380,-3628,9051,-2152,-2008,303,288
3896578369,-3897,10209,-642,-1636,228,254
3896598358,-4143,11295,-3,-1225,243,261
3896618347,-3690,11886,326,-772,296,264
3896638336,-3046,12280,56,-329,290,255
3896658325,-3294,12589,-1229,111,175,207
3896678314,-3753,12566,-1708,501,48,124
3896698303,-3700,12553,-2421,826,47,36
3896718292,-3385,12571,-2624,1105,-24,-60
3896738281,-3213,12467,-2074,1409,-170,-163
3896758270,-2981,12192,-2959,1688,-257,-262
3896778259,-2775,11820,-4347,1924,-205,-353
3896798248,-3561,11249,-4900,2146,-237,-478
3896818237,-3112,10606,-5666,2323,-382,-635
3896838226,-2462,9947,-5340,2514,-717,-806
3896858215,-3469,8534,-4479,2812,-816,-1029
3896878204,-4045,7337,-5870,3186,-721,-1212
3896898193,-3396,5365,-6878,3442,-559,-1366
3896918182,-3789,2571,-6536,3573,-548,-1528
3896938171,-5270,1174,-9654,3641,-552,-1604
3896958160,-5694,-1363,-7630,3676,-429,-1675
3896978149,-5078,-3752,-8990,3691,-275,-1715
3896998138,-5606,-5541,-8176,3761,-263,-1720
3897018127,-6155,-6934,-10304,3778,-324,-1769
3897038116,-5376,-7147,-13283,3849,116,-1758
3897058105,-5499,-11008,-11601,3870,-39,-1834
3897078094,-7633,-13298,-13798,3879,-118,-1889
3897098083,-6842,-14667,-12958,3835,215,-1821
3897118072,-6931,-15776,-13912,3719,202,-1723
3897138061,-6249,-17353,-14262,3622,190,-1646
3897158050,-7610,-19384,-13962,3494,187,-1561
3897178039,-7108,-20227,-13343,3255,457,-1412
3897198028,-7293,-20987,-12603,2897,364,-1379
3897218017,-7828,-20163,-13510,2563,239,-1413
3897238006,-7184,-19293,-13298,2320,299,-1431
3897257995,-7423,-18446,-14163,2048,300,-1414
3897277984,-7589,-17065,-14738,1822,413,-1320
3897297973,-6609,-16486,-14104,1635,493,-1191
3897317962,-6505,-15732,-12963,1486,424,-1056
3897337951,-6605,-15005,-13040,1360,372,-924
3897357940,-6548,-15072,-12478,1189,361,-794
3897377929,-6772,-15460,-12345,933,332,-665
3897397918,-7271,-15587,-11227,643,433,-509
3897417907,-5712,-16118,-11365,307,501,-335
3897437896,-5797,-16363,-12087,-45,398,-158
3897457885,-6767,-16255,-11929,-399,347,-56
3897477874,-5707,-16900,-12187,-776,383,48
3897497863,-5398,-16806,-13679,-1119,335,195
3897517852,-5475,-16540,-14729,-1432,368,375
3897537841,-5037,-17068,-15174,-1776,358,514
3897557830,-5281,-17610,-15526,-2141,236,613
3897577819,-5043,-18148,-15380,-2467,149,704
3897597808,-4780,-17785,-15960,-2785,74,803
3897617797,-4915,-17141,-17053,-3072,29,927
3897637786,-5434,-16886,-16989,-3314,67,1042
3897657775,-4859,-16175,-17292,-3552,101,1114
3897677764,-4815,-15183,-17731,-3773,-40,1139
3897697753,-4874,-14430,-16788,-4017,-173,1173
3897717742,-5161,-13061,-16441,-4208,-280,1213
3897737731,-4421,-11556,-16123,-4355,-294,1251
3897757720,-4840,-10631,-14970,-4473,-315,1253
3897777709,-4032,-8896,-14994,-4550,-304,1266
3897797698,-4751,-7231,-14650,-4607,-278,1256
3897817687,-4195,-6031,-13550,-4606,-62,1231
3897837677,-3413,-4498,-12250,-4615,70,1144
3897857666,-3425,-2421,-12352,-4594,273,1037
3897877655,-2620,-1319,-11442,-4521,552,871
3897897644,-2212,-709,-9327,-4362,596,649
3897917633,-2155,534,-9540,-4129,636,448
3897937622,-1930,1475,-7641,-3830,636,243
3897957611,-1690,2713,-7542,-3523,549,53
3897977600,-2050,4371,-6793,-3168,464,-122
3897997589,-2046,5727,-4890,-2802,304,-254
3898017578,-1187,7312,-4085,-2484,193,-312
3898037567,-1719,8616,-534,-2093,-100,-325
3898057556,-1979,10257,311,-1669,-75,-213
3898077545,-1885,11176,86,-1180,-43,-95
3898097534,-2292,11733,-1567,-761,4,3
3898117523,-3458,12144,-2148,-422,-137,56
3898137512,-3394,12218,-3335,-210,-422,54
3898157501,-4003,12734,-4274,18,-699,47
3898177490,-4249,13207,-3959,378,-933,20
3898197479,-3988,13558,-2928,662,-1238,-37
3898217468,-4605,13458,-1394,981,-1463,-91
3898237457,-4748,12960,-1077,1305,-1422,-136
3898257446,-4847,12471,-1699,1611,-1325,-193
3898277435,-5164,11916,-2174,1898,-1297,-292
3898297424,-5583,11123,-2919,2163,-1263,-419
3898317413,-5695,10399,-3497,2385,-1085,-528
3898337402,-5544,9102,-3423,2616,-1058,-677
3898357391,-5834,8775,-6255,2831,-1088,-856
3898377380,-4935,7307,-6504,3045,-876,-1012
3898397369,-4018,5237,-6247,3272,-875,-1181
3898417358,-4585,3499,-5689,3532,-1161,-1402
3898437347,-4988,1787,-8028,3703,-1271,-1612
3898457336,-6698,-1133,-6438,3819,-917,-1790
3898477325,-6711,-2761,-7763,3820,-552,-1917
3898497314,-6581,-4553,-9224,3847,-199,-1998
3898517303,-5969,-7314,-9754,3923,-111,-2106
3898537292,-6709,-9893,-11247,3878,66,-2130
3898557281,-7968,-11481,-13322,3782,145,-2161
3898577270,-7592,-13430,-13043,3632,618,-2091
3898597259,-5635,-15846,-11761,3481,612,-2063
3898617248,-7757,-16409,-14167,3398,285,-2105
3898637237,-7494,-16372,-14259,3370,471,-2074
3898657226,-7106,-18281,-13269,3255,722,-2011
3898677215,-7828,-19095,-12961,3159,883,-1897
3898697204,-6908,-19047,-13836,3016,871,-1781
3898717193,-6989,-19251,-13718,2823,832,-1682
3898737182,-7577,-19299,-12577,2643,868,-1557
3898757171,-8090,-19524,-13085,2469,926,-1419
3898777160,-7663,-19030,-13187,2248,1014,-1262
3898797149,-7618,-18700,-13018,1877,981,-1147
3898817138,-7357,-18237,-13293,1490,935,-1053
3898837127,-7958,-17638,-12745,1135,919,-949
3898857116,-7693,-16691,-13375,785,950,-809
3898877105,-6863,-15738,-13771,488,960,-623
3898897094,-6527,-15035,-14122,227,947,-383
3898917083,-6720,-14348,-14744,-46,901,-141
3898937072,-6735,-14344,-14565,-312,837,63
3898957061,-6315,-14794,-14374,-596,748,226
3898977050,-5942,-15266,-14061,-909,636,372
3898997039,-5747,-15586,-13862,-1245,463,472
3899017028,-4854,-15458,-14061,-1572,306,564
3899037017,-4487,-15758,-14207,-1859,174,676
3899057006,-4606,-16073,-14533,-2121,35,762
3899076995,-4362,-16367,-14992,-2373,-73,847
3899096984,-4004,-16715,-15406,-2605,-179,921
3899116973,-4502,-16728,-15640,-2846,-329,966
3899136962,-4748,-16818,-15546,-3045,-475,972
3899156951,-4075,-16555,-15704,-3237,-518,988
3899176940,-4384,-15492,-16111,-3450,-609,986
3899196929,-4187,-14745,-16231,-3620,-606,973
3899216918,-3947,-13966,-16107,-3761,-584,962
3899236907,-3879,-12759,-16388,-3898,-577,966
3899256896,-3544,-11208,-15439,-4000,-514,983
3899276885,-3756,-9534,-14630,-4021,-440,1003
3899296875,-2996,-7155,-14351,-4021,-287,1009
3899316864,-3099,-5379,-14298,-4069,-113,977
3899336853,-3365,-3873,-13273,-4088,106,899
3899356842,-2868,-2411,-12426,-4080,231,786
3899376831,-2319,-811,-12242,-4051,333,669
3899396820,-2384,316,-10105,-3969,442,541
3899416809,-2757,1526,-11185,-3819,577,384
3899436798,-3204,2060,-8319,-3601,600,177
3899456787,-2660,2645,-8590,-3391,638,13
3899476776,-3084,3891,-8554,-3162,700,-115
3899496765,-3030,4552,-6697,-2892,613,-231
3899516754,-3570,5823,-7387,-2665,505,-315
3899536743,-3744,6927,-6531,-2431,390,-381
3899556732,-4067,7862,-4412,-2184,242,-424
3899576721,-4217,9461,-5314,-1934,285,-402
3899596710,-4270,10158,-2844,-1599,160,-392
3899616699,-4777,11190,-4377,-1359,179,-338
3899636688,-5155,12040,-4588,-1171,312,-288
3899656677,-5609,12757,-4938,-984,280,-240
3899676666,-6171,13041,-3880,-757,117,-184
3899696655,-5915,13224,-4698,-565,15,-114
3899716644,-6114,13639,-5412,-435,-18,-53
3899736633,-6499,13562,-3471,-272,-74,8
3899756622,-6582,13922,-4076,-64,-179,62
3899776611,-6024,13362,-4470,119,-266,99
3899796600,-6300,13413,-5876,229,-214,147
3899816589,-6601,13427,-6093,332,-278,153
3899836578,-6251,12815,-5353,421,-459,137
3899856567,-6272,12797,-4822,536,-545,150
3899876556,-6252,12495,-3417,709,-474,159
3899896545,-5969,12311,-4417,896,-362,171
3899916534,-5618,11791,-4386,1120,-355,170
3899936523,-5389,11461,-4913,1348,-425,162
3899956512,-5099,11164,-5025,1584,-510,162
3899976501,-3906,10744,-6389,1811,-642,147
3899996490,-4135,10337,-6028,2040,-859,96
3900016479,-4349,10022,-7161,2232,-944,30
3900036468,-3573,9031,-6514,2435,-1096,-73
3900056457,-3564,8133,-7210,2655,-1488,-240
3900076446,-5312,7377,-6565,2870,-1570,-417
3900096435,-4464,6188,-6309,3066,-1175,-541
3900116424,-4149,4953,-8262,3255,-1145,-706
3900136413,-5727,3515,-10118,3452,-1258,-903
3900156402,-6289,374,-5924,3552,-874,-1022
3900176391,-5048,-776,-9444,3529,-697,-1119
3900196380,-6998,-1126,-12296,3633,-973,-1327
3900216369,-7867,-3943,-10977,3642,-514,-1441
3900236358,-6820,-6590,-10025,3529,-104,-1487
3900256347,-5851,-7714,-12351,3491,-172,-1566
3900276336,-8766,-8862,-13528,3555,-412,-1668
3900296325,-8380,-11026,-11957,3520,-209,-1726
3900316314,-7108,-13058,-11411,3335,20,-1738
3900336303,-8165,-13260,-14148,3248,3,-1755
3900356292,-8516,-14071,-12910,3221,6,-1780
3900376281,-8905,-16104,-12423,3083,131,-1774
3900396270,-8928,-15899,-13611,2914,553,-1688
3900416259,-6706,-16127,-13334,2713,665,-1618
3900436248,-8740,-16691,-12871,2532,494,-1595
3900456237,-7529,-16776,-10913,2410,646,-1519
3900476226,-7043,-16829,-10375,2293,504,-1480
3900496215,-7168,-15792,-11383,2240,558,-1390
3900516204,-6644,-15952,-11200,2207,660,-1265
3900536193,-6171,-16931,-9959,2136,612,-1126
3900556182,-7022,-17335,-9005,2032,468,-989
3900576171,-6164,-16306,-10038,1916,522,-839
3900596160,-6156,-16094,-9965,1774,508,-724
3900616149,-5911,-16991,-8478,1566,451,-638
3900636138,-5585,-17394,-7821,1301,422,-527
3900656127,-5399,-17364,-7500,1043,333,-437
3900676116,-5118,-16702,-7365,827,220,-376
3900696105,-5910,-15605,-8575,649,152,-311
3900716094,-6089,-15744,-7964,461,229,-229
3900736083,-5676,-16081,-7837,245,352,-116
3900756072,-5249,-16230,-7938,43,403,13
3900776062,-5367,-16482,-8240,-154,334,101
3900796051,-6113,-16505,-8535,-367,306,171
3900816040,-5994,-16599,-8346,-595,382,254
3900836029,-5141,-16727,-8903,-816,421,345
3900856018,-5338,-16667,-9661,-1053,329,428
3900876007,-6239,-17196,-9471,-1322,282,499
3900895996,-5548,-17773,-9836,-1586,317,559
3900915985,-5268,-17853,-10813,-1836,355,662
3900935974,-3715,-17420,-12293,-2046,338,771
3900955963,-5043,-17540,-12807,-2263,146,816
3900975952,-6153,-17607,-13027,-2492,32,823
3900995941,-4947,-17272,-13764,-2703,-2,848
3901015930,-5016,-16750,-14309,-2894,-50,882
3901035919,-4736,-16388,-14585,-3078,-112,911
3901055908,-4776,-15795,-14570,-3269,-214,947
3901075897,-4958,-14961,-15308,-3443,-248,989
3901095886,-5217,-14356,-14477,-3576,-223,1029
3901115875,-4909,-13050,-14901,-3671,-294,1072
3901135864,-5723,-11521,-15511,-3735,-371,1122
3901155853,-5218,-10469,-16063,-3824,-307,1152
3901175842,-5609,-9817,-15201,-3947,-277,1163
3901195831,-5352,-8378,-13483,-4024,-282,1167
3901215820,-4955,-6234,-13408,-4050,-376,1135
3901235809,-5753,-4308,-13562,-4066,-341,1090
3901255798,-5359,-3553,-13485,-4066,-161,1019
3901275787,-5427,-2699,-12821,-4028,7,942
3901295776,-4902,-2001,-12477,-3975,155,856
3901315765,-4963,-858,-11284,-3879,143,748
3901335754,-3837,117,-8129,-3721,81,647
3901355743,-4710,1911,-9628,-3585,234,560
3901375732,-4467,2868,-8541,-3403,385,400
3901395721,-4455,3375,-7871,-3282,357,218
3901415710,-4724,5034,-7850,-3121,391,71
3901435699,-3892,5999,-4766,-2829,337,-33
3901455688,-4711,7668,-4694,-2559,343,-84
3901475677,-5090,9165,-4322,-2272,291,-135
3901495666,-5004,9736,-2520,-1967,281,-153
3901515655,-5566,10246,270,-1553,198,-111
3901535644,-6622,11752,-835,-1108,212,-12
3901555633,-5863,11712,-1691,-771,338,25
3901575622,-6923,12150,-2270,-499,469,23
3901595611,-7268,12652,-2494,-194,381,-6
3901615600,-6437,12537,-3431,91,190,-32
3901635589,-6159,12795,-4183,344,35,3
3901655578,-6654,13126,-3118,616,-164,51
3901675567,-6053,13449,-3059,869,-248,104
3901695556,-5624,13374,-3391,1135,-466,118
3901715545,-5669,12700,-2735,1409,-680,87
3901735534,-5674,12288,-3384,1641,-715,48
3901755523,-5640,11490,-2995,1885,-841,-39
3901775512,-5277,10846,-4218,2129,-977,-135
3901795501,-4397,9949,-5121,2362,-1152,-240
3901815490,-4925,9155,-5059,2565,-1114,-338
3901835479,-4783,8256,-4317,2762,-961,-416
3901855468,-4737,7406,-5796,2993,-1047,-522
3901875457,-4777,6209,-7570,3236,-1110,-682
3901895446,-4759,3818,-6369,3459,-853,-836
3901915435,-4640,1859,-7164,3628,-552,-958
3901935424,-5587,179,-8922,3776,-689,-1166
3901955413,-4427,-2259,-10187,3889,-846,-1391
3901975402,-8080,-4696,-7486,3884,-731,-1529
3901995391,-7945,-6601,-10080,3783,-67,-1521
3902015380,-5069,-7432,-12408,3694,137,-1592
3902035369,-6962,-9810,-9802,3698,165,-1733
3902055358,-6370,-11623,-10749,3737,291,-1811
3902075347,-7184,-12814,-14674,3726,407,-1873
3902095336,-7388,-13813,-13605,3629,745,-1857
3902115325,-7053,-15925,-12737,3488,926,-1785
3902135314,-5350,-16484,-12770,3438,1036,-1697
3902155303,-5969,-17565,-11479,3403,657,-1713
3902175292,-7880,-17851,-13429,3300,610,-1689
3902195281,-7222,-18196,-12482,3139,1069,-1542
3902215270,-4735,-20056,-10453,2930,1040,-1462
3902235260,-5320,-19902,-13251,2685,714,-1361
3902255249,-7683,-19327,-13322,2421,669,-1207
3902275238,-6974,-20047,-11469,2115,760,-1122
3902295227,-6774,-19766,-12012,1824,785,-1001
3902315216,-6475,-18454,-13254,1544,837,-845
3902335205,-6892,-17237,-13811,1280,771,-704
3902355194,-6891,-16471,-14044,1033,709,-578
3902375183,-7046,-16005,-13890,778,719,-416
3902395172,-6711,-15497,-13673,537,729,-272
3902415161,-5571,-15176,-13743,296,668,-87
3902435150,-5890,-14988,-13522,26,520,79
3902455139,-6358,-15248,-12965,-252,406,152
3902475128,-5211,-15376,-12610,-562,359,245
3902495117,-4472,-15685,-12736,-881,266,353
3902515106,-4997,-15937,-12471,-1181,181,463
3902535095,-4976,-16173,-12767,-1480,121,562
3902555084,-4086,-16630,-12773,-1744,75,647
3902575073,-4085,-16724,-13383,-1990,23,723
3902595062,-3237,-16477,-14723,-2228,-31,784
3902615051,-4075,-16488,-15459,-2467,-188,812
3902635040,-4561,-16706,-15125,-2719,-257,842
3902655029,-3836,-16531,-14492,-2931,-286,865
3902675018,-3789,-15854,-14377,-3088,-358,872
3902695007,-4003,-15104,-15122,-3224,-442,874
3902714996,-4330,-14423,-15407,-3386,-531,879
3902734985,-4396,-14156,-15888,-3547,-521,907
3902754974,-3441,-13599,-15816,-3668,-442,945
3902774963,-4594,-12739,-15490,-3777,-561,960
3902794952,-4697,-11112,-15570,-3876,-544,996
3902814941,-5246,-9778,-14640,-3931,-490,1018
3902834930,-4857,-7911,-14650,-3935,-468,1022
3902854919,-4645,-5941,-14488,-3942,-485,1001
3902874908,-5178,-4728,-12263,-3941,-522,968
3902894897,-5163,-2571,-11195,-3867,-462,957
3902914886,-4531,-211,-10851,-3771,-300,911
3902934875,-5029,735,-11126,-3725,-150,821
3902954864,-4298,1791,-10427,-3670,75,724
3902974853,-4527,2237,-9890,-3598,147,603
3902994842,-4895,3265,-9747,-3479,328,494
3903014831,-4680,3916,-7602,-3300,402,364
3903034820,-4074,5017,-8094,-3114,467,255
3903054809,-4874,6268,-7314,-2845,542,167
3903074798,-4893,6574,-4352,-2556,564,90
3903094787,-4659,7943,-4344,-2319,706,68
3903114776,-4420,9097,-4627,-2030,759,26
3903134765,-4647,8971,-2158,-1736,698,-38
3903154754,-5338,10445,-3602,-1545,809,-70
3903174743,-5627,11378,-4342,-1323,821,-125
3903194732,-5948,11681,-3426,-1090,706,-178
3903214721,-5889,12184,-3498,-903,721,-187
3903234710,-6291,12667,-3176,-684,706,-170
3903254699,-5750,12709,-2262,-375,462,-143
3903274688,-6422,12713,-1421,-36,97,-109
3903294677,-6597,13134,-2067,270,54,-37
3903314666,-6313,13254,-2646,580,77,35
3903334655,-6191,12981,-2449,901,-112,74
3903354644,-5406,12477,-2735,1207,-445,78
3903374633,-5790,12359,-2624,1513,-780,76
3903394622,-5566,12134,-2431,1808,-896,79
3903414611,-4938,11609,-2788,2094,-943,82
3903434600,-4257,11015,-3454,2407,-1144,48
3903454589,-5051,9985,-3170,2739,-1365,-24
3903474578,-4216,8867,-4738,3010,-1164,-39
3903494567,-3324,7997,-6324,3256,-1250,-122
3903514556,-3874,6365,-7104,3525,-1666,-337
3903534545,-4780,4098,-6498,3787,-1702,-573
3903554534,-3881,1998,-8005,3889,-1415,-775
3903574523,-5771,47,-9197,4002,-1589,-1068
3903594512,-7799,-2920,-7242,4093,-1549,-1332
3903614501,-6862,-5525,-8349,3960,-1028,-1428
3903634490,-6423,-6560,-10505,3881,-714,-1542
3903654479,-8326,-7672,-12182,3915,-710,-1692
3903674468,-8371,-10013,-10989,3879,-366,-1809
3903694458,-8326,-11626,-12011,3736,254,-1821
3903714447,-5870,-12934,-12327,3654,329,-1823
3903734436,-7981,-14857,-13523,3622,-168,-1918
3903754425,-9791,-15702,-13939,3549,-92,-1970
3903774414,-8594,-16414,-13099,3352,353,-1911
3903794403,-5822,-16782,-12182,3136,443,-1846
3903814392,-6964,-17423,-11799,2975,-121,-1910
3903834381,-11026,-18054,-11981,2875,-96,-1958
3903854370,-7957,-17975,-11350,2734,591,-1819
3903874359,-6664,-18799,-10268,2492,449,-1752
3903894348,-8088,-18474,-11267,2276,45,-1748
3903914337,-8875,-17307,-12677,2149,269,-1609
3903934326,-7656,-18362,-9605,1985,479,-1423
3903954315,-6832,-18574,-9132,1772,283,-1284
3903974304,-7604,-17479,-11180,1589,99,-1158
3903994293,-8842,-17074,-10081,1388,108,-1017
3904014282,-8557,-17309,-9355,1152,307,-856
3904034271,-7544,-16957,-10610,911,461,-664
3904054260,-8047,-17013,-10269,664,497,-480
3904074249,-8203,-16659,-10125,412,577,-290
3904094238,-7830,-16440,-10159,154,649,-120
3904114227,-6858,-16405,-10243,-108,681,54
3904134216,-7437,-16014,-10770,-389,665,212
3904154205,-7348,-16240,-10563,-673,705,362
3904174194,-6290,-16586,-10453,-952,736,508
3904194183,-6023,-16576,-11199,-1229,705,649
3904214172,-5798,-16895,-11996,-1542,749,795
3904234161,-4753,-17154,-12390,-1857,721,901
3904254150,-5273,-17570,-12457,-2126,506,936
3904274139,-6300,-17962,-12982,-2357,299,956
3904294128,-5542,-17843,-13913,-2600,215,1008
3904314117,-4955,-17177,-14288,-2860,180,1070
3904334106,-5358,-16849,-14934,-3106,127,1110
3904354095,-5584,-16140,-15442,-3351,27,1135
3904374084,-4562,-15285,-15685,-3573,-78,1150
3904394073,-5212,-14574,-15563,-3769,-231,1138
3904414062,-5467,-13572,-15657,-3926,-323,1128
3904434051,-5427,-12811,-15333,-4049,-381,1121
3904454040,-5151,-11442,-16119,-4167,-327,1122
3904474029,-4712,-10889,-15884,-4284,-305,1093
3904494018,-5148,-10056,-15429,-4360,-409,1044
3904514007,-5452,-9127,-13530,-4387,-362,1024
3904533996,-4936,-7069,-11669,-4366,-200,1020
3904553985,-4525,-4524,-9986,-4264,-154,977
3904573974,-4668,-2135,-11752,-4076,-56,921
3904593963,-5077,-922,-10490,-3907,51,809
3904613952,-5134,-441,-10087,-3764,204,685
3904633941,-4575,959,-8323,-3562,371,568
3904653930,-3970,2165,-8168,-3380,434,444
3904673919,-4951,3743,-8994,-3200,471,336
3904693908,-5515,4344,-9027,-2969,400,202
3904713897,-5402,5132,-7880,-2740,206,101
3904733886,-5151,6054,-4484,-2412,-122,51
3904753875,-5866,7372,-2986,-2040,-271,64
3904773864,-7061,8462,-1683,-1687,-295,88
3904793853,-6684,8918,-1840,-1301,-66,144
3904813842,-5779,9433,-1197,-957,121,201
3904833831,-6455,10788,-2251,-687,200,249
3904853820,-6384,12219,-4391,-528,392,274
3904873809,-5334,12546,-6884,-489,641,249
3904893798,-5303,13054,-7206,-476,706,203
3904913787,-5508,13789,-7995,-452,624,181
3904933776,-5100,13927,-8076,-459,533,165
3904953765,-4688,14140,-6219,-501,471,159
3904973754,-4743,14691,-3595,-324,-22,153
3904993743,-4746,14391,-2388,-48,-369,142
3905013732,-5329,13809,-3066,190,-281,128
3905033721,-5351,13309,-3336,411,-77,108
3905053710,-5219,12617,-3366,625,-133,71
3905073699,-5012,12022,-2984,887,-381,45
3905093688,-4824,11754,-3140,1185,-610,34
3905113677,-4849,11616,-3678,1469,-677,15
3905133666,-4482,11015,-3341,1766,-727,-30
3905153656,-4478,10332,-3202,2123,-972,-91
3905173645,-4149,9490,-4816,2481,-1288,-160
3905193634,-3422,8136,-6224,2724,-1214,-258
3905213623,-4239,7842,-5563,2919,-1182,-402
3905233612,-4224,7265,-6907,3142,-1269,-564
3905253601,-3470,5892,-8569,3373,-1385,-768
3905273590,-2505,3844,-6797,3608,-1700,-1067
3905293579,-6164,2149,-5930,3764,-1900,-1359
3905313568,-6846,68,-9068,3829,-1316,-1575
3905333557,-5516,-3050,-7084,3923,-931,-1801
3905353546,-5560,-5862,-7976,3918,-1249,-2024
3905373535,-8937,-7485,-11941,3840,-1492,-2225
3905393524,-11002,-9882,-8187,3722,-450,-2263
3905413513,-7362,-13081,-9412,3587,496,-2160
3905433502,-7736,-13917,-13652,3563,86,-2185
3905453491,-10521,-14714,-14066,3507,105,-2237
3905473480,-7969,-17279,-10774,3324,371,-2237
3905493469,-8666,-17515,-11326,3087,123,-2233
3905513458,-8583,-16498,-11801,2987,134,-2247
3905533447,-8565,-16805,-12689,2985,269,-2265
3905553436,-10333,-17175,-13005,2964,742,-2140
3905573425,-5800,-17526,-11415,2843,797,-2005
3905593414,-6730,-17921,-12540,2649,252,-1989
3905613403,-8815,-18440,-11579,2501,323,-1959
3905633392,-7201,-19887,-9114,2423,669,-1769
3905653381,-6225,-20719,-9953,2262,545,-1548
3905673370,-7801,-19270,-12569,1935,361,-1399
3905693359,-8965,-19254,-11042,1530,317,-1283
3905713348,-8369,-19820,-9030,1152,466,-1051
3905733337,-8630,-18637,-10062,813,635,-782
3905753326,-8189,-17303,-10517,526,723,-574
3905773315,-8141,-15964,-11432,290,843,-343
3905793304,-7451,-14954,-12106,87,952,-106
3905813293,-7508,-15012,-11527,-132,848,74
3905833282,-7024,-15367,-11186,-367,786,232
3905853271,-6844,-15442,-11311,-609,761,391
3905873260,-6236,-15664,-10886,-868,721,542
3905893249,-6175,-15899,-10521,-1137,676,688
3905913238,-5329,-16643,-10179,-1401,655,811
3905933227,-5089,-17201,-10099,-1664,535,872
3905953216,-5427,-17058,-10826,-1904,379,901
3905973205,-5410,-17120,-11583,-2093,296,933
3905993194,-4785,-17228,-12543,-2307,261,994
3906013183,-4779,-17335,-12929,-2500,61,1019
3906033172,-4982,-17108,-13918,-2658,-117,1061
3906053161,-5333,-16502,-14374,-2877,-223,1122
3906073150,-5105,-15943,-15130,-3094,-331,1179
3906093139,-4905,-15298,-15554,-3308,-503,1199
3906113128,-5931,-14456,-15496,-3529,-690,1190
3906133117,-6482,-13523,-16072,-3694,-643,1200
3906153106,-5399,-12369,-16025,-3831,-654,1210
3906173095,-5710,-11223,-15770,-3968,-719,1222
3906193084,-5438,-9635,-15812,-4083,-554,1241
3906213073,-5120,-8110,-15111,-4175,-519,1211
3906233062,-5750,-6840,-14126,-4208,-488,1172
3906253051,-5157,-5308,-12303,-4215,-340,1138
3906273040,-5187,-3414,-13069,-4218,-151,1075
3906293029,-4849,-2106,-10470,-4152,9,982
3906313018,-4516,-1094,-10561,-4032,67,864
3906333007,-6070,277,-11688,-3838,148,724
3906352996,-5508,164,-9294,-3687,294,573
3906372985,-4887,626,-6253,-3619,426,450
3906392974,-5052,3213,-7137,-3478,703,350
3906412963,-5555,4700,-6293,-3144,632,201
3906432952,-5477,5321,-6469,-2829,663,74
3906452941,-5097,5758,-5770,-2577,654,-49
3906472930,-5795,7127,-4498,-2295,598,-142
3906492919,-6076,8572,-3958,-1975,559,-205
3906512908,-5702,9280,-5082,-1744,425,-275
3906532897,-6235,10186,-3117,-1542,279,-305
3906552886,-6384,11343,-1842,-1230,256,-237
3906572875,-6608,12491,-1998,-900,272,-153
3906592864,-6772,12701,-3477,-658,298,-158
3906612854,-6122,12679,-3013,-446,208,-185
3906632843,-7438,12878,-2041,-194,34,-196
3906652832,-7657,13419,-1977,117,-86,-148
3906672821,-6623,13246,-2732,443,-246,-71
3906692810,-6266,12709,-3231,720,-411,8
3906712799,-6755,12259,-3036,967,-615,62
3906732788,-7521,12121,-2599,1226,-810,76
3906752777,-7655,11840,-3091,1468,-915,65
3906772766,-6910,11162,-3667,1697,-964,35
3906792755,-7211,10579,-4012,1916,-985,8
3906812744,-7498,9752,-5039,2082,-996,-31
3906832733,-7654,8995,-4889,2225,-1055,-99
3906852722,-7189,8650,-5088,2389,-1139,-186
3906872711,-6813,8243,-5398,2600,-1116,-271
3906892700,-6206,7547,-6786,2813,-1141,-371
3906912689,-6453,6518,-6122,3036,-1193,-516
3906932678,-6530,4742,-6300,3245,-1091,-685
3906952667,-6530,4742,-6300,3441,-998,-864
3906972656,-6597,3548,-7444,3441,-998,-864
3906992645,-7212,1692,-6159,3642,-848,-1054
3907012634,-7077,-265,-7852,3743,-345,-1219
3907032623,-5338,-2384,-9717,3891,-182,-1421
3907052612,-7958,-5187,-8006,4010,-610,-1682
3907072601,-8172,-7571,-7422,3950,-462,-1833
3907092590,-8897,-9468,-9772,3807,258,-1857
3907112579,-6997,-10530,-12005,3694,925,-1838
3907132568,-4296,-12628,-10637,3714,524,-1905
3907152557,-8996,-15498,-11333,3782,67,-2016
3907172546,-9240,-15715,-10966,3697,958,-1937
3907192535,-6439,-17467,-12230,3532,1465,-1814
3907212524,-5122,-18961,-12043,3420,1035,-1797
3907232513,-8284,-19352,-12886,3316,647,-1825
3907252502,-7148,-19200,-12048,3172,1157,-1709
3907272491,-4638,-19895,-10763,2998,1121,-1629
3907292480,-5639,-19695,-11719,2842,765,-1559
3907312469,-7097,-19075,-12145,2740,779,-1429
3907332458,-6620,-19323,-11897,2572,960,-1275
3907352447,-4612,-19534,-12010,2275,829,-1139
3907372436,-6579,-18768,-12299,1907,531,-1046
3907392425,-8160,-18318,-12247,1549,548,-932
3907412414,-7274,-18682,-11432,1194,687,-844
3907432403,-5854,-17847,-12168,870,685,-693
3907452392,-7040,-16667,-13655,569,531,-505
3907472381,-7247,-16206,-13525,248,483,-339
3907492370,-6948,-15822,-13483,-94,451,-187
3907512359,-7233,-15620,-13479,-438,394,-44
3907532348,-5879,-15555,-13121,-770,372,96
3907552337,-6376,-15317,-13270,-1104,248,229
3907572326,-6171,-15599,-13415,-1398,172,348
3907592315,-5467,-16265,-12591,-1712,121,447
3907612304,-5251,-16343,-13082,-2017,6,529
3907632293,-5151,-16150,-13773,-2274,-69,617
3907652282,-4789,-16722,-13358,-2505,-74,690
3907672271,-4904,-16976,-13172,-2710,-122,723
3907692260,-4428,-16496,-13905,-2887,-150,777
3907712249,-3829,-16026,-14166,-3070,-121,834
3907732238,-3958,-15678,-13684,-3221,-144,858
3907752227,-4168,-15193,-13481,-3313,-217,860
3907772216,-4157,-14186,-13256,-3411,-267,848
3907792205,-3763,-13033,-13650,-3486,-272,830
3907812194,-3456,-12376,-14281,-3532,-346,797
3907832183,-4290,-11768,-14266,-3573,-426,763
3907852172,-4177,-11119,-13028,-3565,-359,750
3907872161,-3877,-9513,-14045,-3570,-287,722
3907892150,-4441,-7975,-13226,-3540,-360,656
3907912139,-4041,-6758,-13537,-3471,-328,605
3907932128,-4111,-5568,-13187,-3379,-320,549
3907952117,-4708,-4345,-12266,-3220,-345,497
3907972106,-4729,-3317,-12755,-3112,-249,445
3907992095,-4472,-1810,-12136,-3033,-200,359
3908012084,-4340,-644,-9828,-2933,-313,294
3908032073,-4766,1244,-11429,-2834,28,262
3908052062,-3982,2439,-11898,-2724,234,148
3908072052,-4357,3192,-10104,-2639,18,9
3908092041,-4714,4747,-10045,-2580,93,-75
3908112030,-4165,6311,-9429,-2477,315,-140
3908132019,-3967,7484,-8374,-2351,385,-203
3908152008,-4291,8534,-8735,-2218,514,-261
3908171997,-4659,8912,-8239,-2087,580,-343
3908191986,-4631,9317,-8742,-1999,605,-409
3908211975,-4889,9572,-8710,-1838,467,-454
3908231964,-5230,9783,-7911,-1697,378,-465
3908251953,-5989,10593,-8097,-1631,298,-454
3908271942,-5897,10661,-5465,-1459,152,-438
3908291931,-6836,10976,-4677,-1241,74,-422
3908311920,-7548,11280,-5520,-1016,149,-425
3908331909,-7167,10712,-4264,-775,203,-404
3908351898,-8087,10858,-4073,-538,197,-355
3908371887,-8321,10836,-3505,-261,196,-287
3908391876,-7924,10469,-5265,-35,244,-212
3908411865,-8350,10652,-5121,196,144,-160
3908431854,-8236,10721,-4416,468,-17,-86
3908451843,-7897,10614,-5246,748,-155,2
3908471832,-7710,10590,-5052,1021,-294,77
3908491821,-7555,10556,-5090,1269,-417,137
3908511810,-7613,10331,-5057,1534,-525,182
3908531799,-7152,9898,-4950,1813,-613,205
3908551788,-6661,9079,-6264,2063,-709,207
3908571777,-6511,8476,-6452,2254,-755,197
3908591766,-6182,8122,-7901,2413,-813,153
3908611755,-5474,7495,-8567,2573,-988,55
3908631744,-5217,6801,-9255,2709,-1326,-75
3908651733,-5936,5757,-9575,2829,-1339,-206
3908671722,-5390,4513,-8689,2878,-1267,-373
3908691711,-6093,3470,-9803,2950,-1371,-603
3908711700,-6731,1500,-9680,3081,-1173,-844
3908731689,-6118,-337,-10998,3108,-776,-1049
3908751678,-6282,-2009,-11332,3084,-848,-1272
3908771667,-8087,-3021,-12084,3056,-949,-1489
3908791656,-7526,-4989,-9883,3039,-568,-1618
3908811645,-7042,-6644,-10483,3050,-455,-1718
3908831634,-8234,-7033,-11918,3065,-540,-1862
3908851623,-9429,-8777,-11508,3028,-208,-1968
3908871612,-8712,-10883,-12012,2921,324,-1982
3908891601,-8223,-12140,-11683,2792,415,-1987
3908911590,-7972,-12689,-12181,2731,275,-2004
3908931579,-9003,-12981,-12055,2733,333,-1999
3908951568,-8761,-14439,-11484,2716,637,-1919
3908971557,-7928,-15731,-10751,2644,766,-1809
3908991546,-8802,-15778,-11319,2587,796,-1696
3909011535,-8056,-16000,-11449,2573,1072,-1523
3909031524,-7283,-16647,-11050,2507,1126,-1370
3909051513,-7672,-17110,-10430,2375,1001,-1273
3909071502,-7110,-17405,-10470,2218,877,-1186
3909091491,-6987,-17090,-10188,2070,786,-1086
3909111480,-7587,-16806,-10023,1924,842,-964
3909131469,-6891,-16994,-10104,1724,944,-813
3909151458,-6686,-16787,-9915,1478,910,-673
3909171447,-6302,-16626,-9754,1254,798,-578
3909191436,-6626,-16371,-10362,1044,728,-459
3909211425,-6455,-16161,-10887,808,736,-289
3909231414,-6326,-16089,-9979,570,730,-130
3909251403,-6538,-16267,-10274,322,615,-39
3909271392,-5891,-15943,-10980,81,540,71
3909291381,-6087,-15913,-10826,-155,499,195
3909311370,-6262,-15722,-11682,-421,495,320
3909331359,-6081,-15842,-11479,-701,512,448
3909351348,-4838,-15794,-12235,-975,462,542
3909371337,-6006,-15690,-13002,-1269,291,594
3909391326,-5634,-16238,-12948,-1587,267,643
3909411315,-4973,-16540,-13435,-1869,232,712
3909431304,-5389,-16798,-13004,-2088,124,768
3909451293,-4752,-16488,-14327,-2319,136,846
3909471282,-5170,-16505,-15001,-2597,76,894
3909491271,-5319,-16561,-14881,-2885,47,905
3909511260,-4981,-16298,-14891,-3151,33,923
3909531250,-4805,-15624,-15204,-3319,-76,980
3909551239,-5397,-14770,-15069,-3445,-145,1069
3909571228,-5639,-14117,-14600,-3600,-129,1091
3909591217,-5846,-13007,-14370,-3737,-168,1027
3909611206,-4786,-11983,-14833,-3844,-224,975
3909631195,-5383,-10630,-13673,-3851,-434,959
3909651184,-5217,-9035,-12810,-3800,-581,974
3909671173,-5459,-7209,-13024,-3738,-625,994
3909691162,-5422,-6222,-13570,-3709,-595,977
3909711151,-5682,-5367,-11268,-3695,-715,912
3909731140,-5737,-4051,-11160,-3604,-704,874
3909751129,-5729,-2200,-10756,-3425,-537,828
3909771118,-5964,-1176,-10920,-3307,-406,751
3909791107,-5972,-29,-11540,-3173,-279,685
3909811096,-5610,425,-10386,-2980,-305,604
3909831085,-6135,1284,-10629,-2789,-326,555
3909851074,-6041,2411,-7903,-2646,-172,512
3909871063,-5806,4307,-8171,-2568,106,489
3909891052,-6099,5905,-9377,-2406,133,438
3909911041,-5298,6059,-6522,-2199,-29,366
3909931030,-6159,7422,-5663,-2045,8,333
3909951019,-6318,9009,-5982,-1881,269,308
3909971008,-6215,10124,-5232,-1687,453,241
3909990997,-6401,10986,-6216,-1485,701,181
3910010986,-6286,11388,-6546,-1305,808,109
3910030975,-6509,11643,-6273,-1120,861,15
3910050964,-5187,11686,-4597,-883,630,-51
3910070953,-6078,11968,-4399,-660,288,-50
3910090942,-6949,12203,-4255,-474,207,-46
3910110931,-7061,12082,-2412,-240,234,-51
3910130920,-6973,11667,-1899,105,256,-69
3910150909,-6500,11122,-3194,407,252,-82
3910170898,-6931,10752,-3066,662,226,-92
3910190887,-6627,10519,-3465,922,258,-99
3910210876,-5489,10126,-3269,1242,140,-108
3910230865,-5455,10058,-4258,1567,-63,-140
3910250854,-5823,9979,-4355,1855,-106,-162
3910270843,-4576,9184,-4488,2156,-54,-170
3910290832,-4056,8313,-6222,2428,-198,-214
3910310821,-4667,7789,-8075,2661,-412,-308
3910330810,-4187,6871,-8020,2848,-490,-411
3910350799,-3722,6046,-9178,2990,-652,-546
3910370788,-3627,5007,-9012,3149,-958,-753
3910390777,-4990,3366,-8903,3345,-1051,-980
3910410766,-4635,1266,-9223,3555,-853,-1183
3910430755,-4594,-2268,-8693,3700,-856,-1372
3910450744,-6290,-4547,-8926,3702,-999,-1537
3910470733,-7694,-6475,-10537,3686,-850,-1667
3910490722,-7926,-9563,-8626,3659,-495,-1768
3910510711,-8415,-10487,-10639,3551,-215,-1836
3910530700,-6104,-10926,-15574,3491,-44,-1916
3910550689,-8727,-12866,-13841,3439,-202,-2001
3910570678,-8987,-15205,-11050,3344,60,-1941
3910590667,-7269,-14990,-13300,3262,202,-1845
3910610656,-7194,-15130,-13573,3198,6,-1867
3910630645,-7973,-16672,-12680,3089,-86,-1870
3910650634,-9550,-17070,-12020,2923,40,-1770
3910670623,-8726,-17515,-12041,2743,313,-1648
3910690612,-7516,-18232,-12398,2546,354,-1570
3910710601,-8443,-18413,-11999,2329,319,-1456
3910730590,-8736,-18198,-12113,2103,367,-1310
3910750579,-8265,-18214,-11445,1847,378,-1174
3910770568,-8577,-17736,-11500,1598,432,-1038
3910790557,-7997,-16837,-12157,1399,546,-871
3910810546,-7816,-15978,-12132,1181,663,-654
3910830535,-7766,-15581,-11527,966,701,-455
3910850524,-8212,-15035,-12221,728,728,-288
3910870513,-7440,-14990,-12031,428,828,-103
3910890502,-7148,-15082,-11896,137,734,41
3910910491,-7315,-15089,-11904,-134,687,211
3910930480,-7286,-15162,-12172,-434,765,403
3910950469,-6644,-15155,-12676,-730,833,598
3910970458,-6772,-15509,-12752,-1002,801,750
3910990447,-7437,-15249,-13463,-1289,787,874
3911010437,-6986,-15448,-13702,-1592,778,974
3911030426,-6351,-15654,-13891,-1843,623,1048
3911050415,-6915,-15410,-14175,-2061,455,1146
3911070404,-6409,-15285,-14478,-2301,461,1251
3911090393,-6402,-15512,-14246,-2558,353,1287
3911110382,-6525,-15142,-13660,-2755,223,1305
3911130371,-5980,-14429,-14425,-2904,94,1299
3911150360,-6294,-13760,-15270,-3064,-91,1271
3911170349,-6009,-13755,-14956,-3203,-226,1254
3911190338,-6221,-13291,-14406,-3308,-417,1281
3911210327,-6032,-12009,-15261,-3423,-596,1332
3911230316,-5988,-11313,-14148,-3532,-662,1392
3911250305,-6483,-10037,-13534,-3579,-718,1448
3911270294,-6723,-8775,-11452,-3557,-855,1461
3911290283,-7006,-6873,-13303,-3507,-997,1470
3911310272,-7667,-5401,-12091,-3458,-920,1479
3911330261,-8039,-3800,-10997,-3417,-531,1486
3911350250,-7208,-1752,-10141,-3352,-237,1402
3911370239,-7206,-626,-10486,-3225,-274,1224
3911390228,-6591,70,-9330,-3041,-255,1072
3911410217,-6473,588,-10899,-2906,-100,935
3911430206,-6662,1400,-10922,-2777,8,829
3911450195,-5980,2188,-8558,-2601,-140,736
3911470184,-5230,3644,-7394,-2408,-303,680
3911490173,-6243,4872,-8514,-2241,-294,631
3911510162,-6242,6018,-7174,-2067,-82,590
3911530151,-5878,7387,-5842,-1966,224,531
3911550140,-6522,9188,-5785,-1840,490,440
3911570129,-6225,10512,-4899,-1633,628,342
3911590118,-5397,11086,-4394,-1392,745,251
3911610107,-5320,11041,-6504,-1277,1066,168
3911630096,-6384,11526,-6213,-1173,1033,76
3911650085,-6920,11992,-5194,-1029,1002,-5
3911670074,-6146,11978,-5120,-860,963,-58
3911690063,-6590,11914,-5082,-700,669,-85
3911710052,-7672,12140,-4775,-558,606,-94
3911730041,-7896,12348,-3516,-350,557,-104
3911750030,-7356,12253,-3887,-78,439,-101
3911770019,-7334,11827,-3869,196,251,-61
3911790008,-7597,11704,-3662,451,92,-13
3911809997,-8003,11603,-3739,722,-58,16
3911829986,-7165,11313,-3834,979,-61,50
3911849975,-6320,11140,-3887,1273,-249,69
3911869964,-6352,10918,-4158,1617,-494,69
3911889953,-5901,10098,-4362,1949,-602,50
3911909942,-5645,9317,-5722,2228,-637,15
3911929931,-4529,8052,-5867,2445,-611,-51
3911949920,-3719,7459,-7407,2590,-665,-154
3911969909,-2824,6824,-8630,2792,-1036,-351
3911989898,-4350,5978,-7713,3053,-1450,-603
3912009887,-4533,4390,-8479,3234,-1127,-811
3912029876,-4048,2624,-8630,3356,-988,-1039
3912049865,-5297,770,-8178,3457,-1165,-1276
3912069854,-7166,-328,-10143,3438,-903,-1431
3912089843,-5449,-2732,-9658,3333,-423,-1585
3912109832,-5397,-5786,-9071,3382,-606,-1787
3912129821,-8127,-6803,-12531,3404,-642,-1909
3912149810,-8850,-8722,-10281,3310,-116,-1976
3912169799,-7002,-10966,-11209,3174,277,-2005
3912189788,-6874,-10960,-14324,3084,145,-2065
3912209777,-8814,-12823,-11808,3022,80,-2159
3912229766,-8947,-14545,-10547,2968,427,-2168
3912249755,-7101,-15157,-12908,2933,810,-2110
3912269744,-6571,-16151,-13508,2917,775,-2046
3912289733,-7953,-16961,-12190,2877,474,-1978
3912309722,-9292,-17368,-10726,2806,684,-1859
3912329711,-6236,-17655,-11901,2773,944,-1748
3912349700,-5855,-18296,-11783,2682,728,-1620
3912369689,-8066,-18614,-11468,2552,424,-1518
3912389678,-7074,-18615,-10198,2406,443,-1395
3912409667,-5635,-18473,-10396,2186,396,-1289
3912429656,-7121,-18428,-10954,1935,251,-1166
3912449645,-7729,-18291,-10274,1693,333,-988
3912469635,-7138,-17999,-9729,1428,489,-793
3912489624,-6525,-17365,-10032,1161,521,-628
3912509613,-6461,-16656,-10564,927,453,-468
3912529602,-7134,-16098,-11466,719,481,-287
3912549591,-6752,-15488,-11373,495,575,-100
3912569580,-6221,-15392,-11129,221,513,34
3912589569,-6340,-15695,-10679,-62,312,126
3912609558,-6186,-16012,-10332,-327,250,251
3912629547,-5658,-15801,-10725,-583,217,389
3912649536,-6524,-15946,-11481,-867,170,528
3912669525,-5565,-16147,-11560,-1149,259,685
3912689514,-6119,-16173,-12110,-1422,221,795
3912709503,-6887,-16694,-12468,-1682,144,859
3912729492,-5971,-17019,-13225,-1948,125,938
3912749481,-5879,-17037,-13650,-2217,22,1024
3912769470,-5589,-17075,-14116,-2496,-85,1101
3912789459,-5996,-17107,-13262,-2765,-218,1162
3912809448,-5291,-16493,-13973,-2983,-297,1220
3912829437,-5465,-15880,-14479,-3173,-331,1275
3912849426,-5558,-15632,-13791,-3333,-320,1327
3912869415,-6052,-15126,-13161,-3438,-353,1362
3912889404,-5734,-13234,-13703,-3489,-376,1406
3912909393,-5813,-12296,-13744,-3562,-397,1410
3912929382,-5939,-11727,-12609,-3592,-468,1413
3912949371,-5983,-10539,-12025,-3558,-498,1425
3912969360,-6325,-9004,-11143,-3494,-549,1424
3912989349,-6165,-7578,-9718,-3431,-541,1389
3913009338,-6735,-5458,-12059,-3400,-421,1307
3913029327,-6600,-4558,-11472,-3306,-306,1173
3913049316,-6268,-3955,-12186,-3222,-172,1057
3913069305,-5917,-2611,-10828,-3134,-109,942
3913089294,-6178,-915,-11154,-3003,-16,836
3913109283,-5531,362,-11392,-2825,66,722
3913129272,-5560,1022,-11055,-2661,-61,620
3913149261,-5829,1944,-10578,-2483,-186,568
3913169250,-6197,2924,-10794,-2399,71,519
3913189239,-6049,4356,-10095,-2316,114,462
3913209228,-5877,5984,-8016,-2190,-90,421
3913229217,-5643,7348,-6457,-2073,-36,397
3913249206,-6622,8715,-7004,-1944,185,368
3913269195,-6472,9432,-6409,-1797,496,299
3913289184,-6664,9963,-7355,-1692,689,184
3913309173,-6971,10475,-7143,-1548,705,47
3913329162,-6160,10801,-6299,-1384,799,-38
3913349151,-6070,10955,-6823,-1265,697,-82
3913369140,-6746,11201,-5601,-1107,448,-139
3913389129,-7324,11499,-4734,-921,480,-174
3913409118,-7160,11172,-4393,-704,541,-204
3913429107,-7838,10761,-3952,-468,498,-248
3913449096,-7869,10364,-4244,-235,469,-262
3913469085,-8309,10193,-4922,-20,439,-212
3913489074,-8291,10441,-4224,238,295,-116
3913509063,-7327,10444,-4038,516,122,-4
3913529052,-8122,10756,-3756,840,-104,89
3913549041,-8080,10873,-4013,1172,-236,155
3913569030,-7277,10410,-3053,1539,-342,184
3913589019,-6549,9834,-4050,1875,-428,199
3913609008,-5964,9213,-5444,2161,-516,175
3913628997,-5403,8686,-6757,2426,-661,84
3913648986,-4415,8024,-8312,2657,-827,-43
3913668975,-3576,7038,-6491,2899,-1105,-228
3913688964,-3495,5872,-8508,3092,-1330,-476
3913708953,-4060,4819,-8868,3313,-1334,-768
3913728942,-4228,2264,-6267,3466,-1310,-1066
3913748931,-5425,419,-7212,3504,-1232,-1330
3913768920,-4670,-1301,-9673,3483,-1073,-1553
3913788909,-4347,-3525,-10704,3412,-1062,-1778
3913808898,-6787,-5685,-8361,3480,-948,-1962
3913828887,-6808,-8279,-9063,3471,-571,-2048
3913848876,-7220,-9780,-12206,3475,-204,-2113
3913868865,-6607,-12162,-11355,3423,-278,-2236
3913888854,-9199,-14636,-10290,3256,-403,-2338
3913908843,-9398,-15816,-11805,3145,32,-2337
3913928833,-8686,-16264,-12655,2998,385,-2293
3913948822,-8946,-17610,-12302,2840,535,-2231
3913968811,-9102,-18068,-12044,2746,637,-2132
3913988800,-8127,-18151,-11563,2678,555,-2067
3914008789,-9004,-18134,-12106,2533,423,-2023
3914028778,-9393,-17366,-12615,2417,707,-1890
3914048767,-9417,-17455,-10128,2350,1041,-1664
3914068756,-7632,-17258,-9330,2287,1074,-1509
3914088745,-6452,-16787,-10756,2200,769,-1430
3914108734,-7102,-16728,-10645,2053,544,-1309
3914128723,-7528,-17247,-8765,1894,498,-1150
3914148712,-7643,-17261,-9509,1739,584,-958
3914168701,-6973,-17280,-10494,1518,768,-733
3914188690,-7869,-18020,-9311,1224,760,-537
3914208679,-7586,-18102,-9304,880,768,-390
3914228668,-6810,-17908,-10111,542,873,-187
3914248657,-7048,-17889,-9580,225,847,1
3914268646,-7543,-17193,-10045,-85,876,176
3914288635,-6250,-16347,-11642,-374,1013,371
3914308624,-5916,-15844,-12105,-639,1052,571
3914328613,-6605,-15590,-12127,-866,986,713
3914348602,-6755,-15768,-12141,-1095,941,805
3914368591,-6645,-15949,-12729,-1323,907,891
3914388580,-4751,-15854,-13487,-1591,834,988
3914408569,-5555,-16418,-13183,-1882,487,1013
3914428558,-5899,-16870,-12964,-2148,205,1020
3914448547,-5431,-16819,-14371,-2451,51,1073
3914468536,-5141,-16693,-14886,-2755,-53,1164
3914488525,-4900,-16880,-14633,-3010,-150,1248
3914508514,-5556,-16962,-14716,-3249,-384,1285
3914528503,-6098,-16341,-14770,-3454,-527,1318
3914548492,-6173,-15580,-14164,-3627,-501,1356
3914568481,-5677,-14977,-13620,-3745,-547,1377
3914588470,-5689,-13524,-13781,-3819,-736,1398
3914608459,-6174,-12173,-13568,-3843,-806,1433
3914628448,-6588,-11022,-12927,-3844,-728,1454
3914648437,-6735,-9335,-11964,-3809,-730,1436
3914668426,-6745,-7604,-13618,-3760,-674,1383
3914688415,-6260,-6627,-12222,-3699,-674,1312
3914708404,-6430,-5531,-9799,-3600,-788,1264
3914728393,-6782,-3203,-11143,-3515,-519,1259
3914748382,-6748,-1769,-10170,-3446,-170,1182
3914768371,-6490,-691,-10404,-3349,101,1048
3914788360,-5686,18,-10518,-3241,289,892
3914808349,-5407,909,-9314,-3119,515,737
3914828338,-5091,2497,-8859,-2958,666,571
3914848327,-5355,4129,-8708,-2775,621,378
3914868316,-6125,5326,-10004,-2532,445,207
3914888305,-4758,5742,-9166,-2382,189,76
3914908294,-5374,6656,-6540,-2247,73,-9
3914928283,-6145,8429,-5089,-2034,37,-43
3914948272,-6082,9248,-5220,-1823,66,-33
3914968261,-6196,9743,-3496,-1609,29,-22
3914988250,-7274,10715,-3337,-1411,323,8
3915008239,-7642,11328,-3933,-1194,678,21
3915028228,-6966,11411,-4367,-1032,743,-56
3915048217,-7243,11566,-6848,-994,812,-165
3915068206,-7645,11932,-5854,-926,804,-240
3915088195,-7977,12555,-5243,-848,935,-273
3915108184,-7663,12992,-5251,-722,1021,-277
3915128173,-7298,12633,-5167,-575,1068,-277
3915148162,-7977,12022,-5392,-432,1083,-250
3915168151,-8565,11517,-4837,-258,931,-243
3915188140,-8895,11481,-4813,-62,796,-208
3915208129,-8872,11510,-4510,138,621,-132
3915228118,-8445,11418,-4075,365,433,-25
3915248107,-7901,10948,-4504,627,212,75
3915268096,-8093,10708,-4672,883,-134,144
3915288085,-7867,10611,-3881,1120,-387,194
3915308074,-6813,10665,-3497,1386,-472,236
3915328063,-5685,10581,-4082,1668,-663,228
3915348052,-5598,10230,-5307,1994,-909,189
3915368041,-5909,9552,-5676,2306,-1014,132
3915388031,-4188,8361,-5800,2586,-1035,73
3915408020,-3210,7560,-6309,2821,-1293,-42
3915428009,-4553,7248,-7206,3042,-1569,-251
3915447998,-3698,6124,-6810,3272,-1573,-496
3915467987,-4363,3944,-6576,3492,-1890,-800
3915487976,-5579,2385,-7386,3602,-1916,-1107
3915507965,-6545,-222,-6621,3625,-1442,-1362
3915527954,-5884,-2715,-9254,3613,-1180,-1582
3915547943,-7960,-4341,-9054,3627,-1306,-1801
3915567932,-8854,-7370,-7728,3556,-847,-1912
3915587921,-8252,-8653,-11313,3433,-343,-1957
3915607910,-8802,-9375,-12132,3349,-370,-2061
3915627899,-9168,-12019,-10002,3319,-536,-2169
3915647888,-11276,-12798,-11422,3248,-305,-2221
3915667877,-9552,-13045,-12552,3152,140,-2241
3915687866,-9387,-14604,-11190,3031,130,-2275
3915707855,-10419,-15825,-11147,2903,86,-2312
3915727844,-9889,-16109,-11363,2784,226,-2300
3915747833,-8740,-16897,-10314,2713,294,-2252
3915767822,-9436,-17204,-10233,2614,277,-2212
3915787811,-9747,-17505,-10029,2531,450,-2120
3915807800,-9212,-18728,-9924,2425,500,-2022
3915827789,-9953,-18726,-9536,2238,430,-1899
3915847778,-8450,-18500,-9701,2027,637,-1727
3915867767,-7078,-18395,-10255,1800,643,-1561
3915887756,-8037,-18076,-9783,1572,523,-1378
3915907745,-9049,-17595,-9251,1365,435,-1212
3915927734,-8471,-17267,-8919,1137,527,-1048
3915947723,-7026,-16842,-9457,899,536,-896
3915967712,-7650,-16248,-9712,667,435,-738
3915987701,-8603,-15788,-9214,474,564,-544
3916007690,-7443,-15511,-9468,315,762,-348
3916027679,-6901,-15434,-9494,138,804,-172
3916047668,-6881,-15750,-8863,-60,745,-17
3916067657,-6494,-15969,-8849,-239,725,137
3916087646,-5891,-16339,-8729,-406,644,283
3916107635,-6018,-16588,-8591,-615,597,432
3916127624,-6345,-16745,-8672,-825,639,582
3916147613,-5401,-16971,-9052,-1021,680,708
3916167602,-5787,-17094,-9586,-1234,571,803
3916187591,-6238,-17193,-10637,-1473,611,910
3916207580,-5061,-17465,-10666,-1706,679,1027
3916227569,-6135,-18054,-10439,-1900,477,1089
3916247558,-6596,-17598,-10914,-2068,248,1120
3916267547,-6117,-16925,-11867,-2289,138,1159
3916287536,-6162,-16479,-12507,-2468,11,1209
3916307525,-6332,-15960,-12582,-2610,-115,1276
3916327514,-7445,-15110,-13164,-2759,-202,1333
3916347503,-6204,-14361,-13453,-2912,-234,1347
3916367492,-7305,-13615,-13627,-3080,-356,1347
3916387481,-7072,-12768,-12982,-3190,-459,1379
3916407470,-6776,-11548,-13149,-3248,-631,1435
3916427459,-7184,-9840,-14792,-3289,-745,1496
3916447448,-7771,-9537,-13697,-3328,-635,1523
3916467437,-7558,-8958,-13632,-3353,-512,1530
3916487426,-6826,-7726,-12854,-3381,-534,1526
3916507415,-7399,-6401,-13144,-3381,-684,1505
3916527404,-7861,-5168,-12839,-3321,-603,1489
3916547393,-7663,-4362,-11328,-3275,-532,1446
3916567382,-8042,-3016,-11077,-3211,-369,1411
3916587371,-7389,-1559,-10508,-3132,-68,1344
3916607360,-6892,-466,-10634,-3081,127,1223
3916627349,-6644,776,-9577,-3012,194,1089
3916647338,-6147,1893,-7667,-2875,258,935
3916667327,-6075,3041,-9512,-2751,568,800
3916687316,-5755,3931,-8521,-2549,584,629
3916707305,-6416,4930,-7991,-2356,571,475
3916727294,-4996,5860,-7087,-2186,618,335
3916747283,-6089,7023,-7182,-2022,572,201
3916767272,-6365,8187,-6925,-1854,683,105
3916787261,-5700,8994,-7082,-1676,693,24
3916807250,-5988,9715,-6301,-1534,527,-32
3916827239,-6573,10703,-6363,-1406,293,-59
3916847229,-6041,11244,-6145,-1279,316,-116
3916867218,-6895,11445,-6987,-1200,564,-179
3916887207,-6983,11770,-6226,-1083,548,-231
3916907196,-6689,12512,-4809,-951,300,-248
3916927185,-6880,12335,-6059,-834,376,-238
3916947174,-7137,12103,-6279,-725,449,-240
3916967163,-7859,12150,-6108,-609,381,-225
3916987152,-7975,12366,-5055,-467,369,-209
3917007141,-7631,12062,-5243,-361,275,-186
3917027130,-8115,11482,-5284,-277,187,-171
3917047119,-8807,11420,-5131,-184,234,-154
3917067108,-8938,11512,-5050,-47,236,-122
3917087097,-8224,11465,-4736,135,92,-72
3917107086,-8308,11414,-4867,315,-28,-5
3917127075,-8469,11544,-5092,489,-48,69
3917147064,-8151,11412,-5383,664,-219,125
3917167053,-7836,11191,-5727,845,-408,175
3917187042,-7604,11132,-5534,1026,-563,206
3917207031,-7307,11146,-6121,1173,-727,211
3917227020,-7185,11346,-5805,1322,-872,189
3917247009,-6917,11184,-6268,1476,-881,164
3917266998,-6268,10579,-7625,1586,-915,129
3917286987,-6345,10269,-7805,1625,-1136,67
3917306976,-6432,10069,-7317,1684,-1397,-35
3917326965,-7246,10084,-8448,1757,-1361,-128
3917346954,-7030,9562,-7882,1883,-1124,-256
3917366943,-5900,8156,-6732,2096,-1198,-456
3917386932,-6728,7022,-8035,2299,-1650,-693
3917406921,-9299,6278,-8082,2378,-1287,-847
3917426910,-7998,4691,-7340,2325,-650,-992
3917446899,-6536,3487,-8205,2361,-960,-1197
3917466888,-9381,2999,-9099,2416,-1383,-1407
3917486877,-10165,1615,-7569,2313,-593,-1497
3917506866,-7729,149,-8244,2193,-88,-1572
3917526855,-7786,-560,-9561,2236,-400,-1712
3917546844,-10920,-1275,-9653,2387,-460,-1829
3917566833,-10204,-3390,-9309,2420,46,-1857
3917586822,-9010,-4517,-10451,2341,329,-1848
3917606811,-10594,-5430,-11211,2372,202,-1885
3917626800,-11754,-6317,-11387,2384,468,-1858
3917646789,-10345,-7402,-11362,2335,828,-1785
3917666778,-9159,-8287,-12630,2272,836,-1722
3917686767,-10889,-9483,-10972,2276,652,-1698
3917706756,-12299,-9879,-11097,2254,851,-1641
3917726745,-9975,-10204,-11809,2211,1267,-1519
3917746734,-8320,-11743,-12230,2146,987,-1461
3917766723,-9966,-11904,-11508,2105,619,-1408
3917786712,-11507,-11990,-12169,2101,885,-1288
3917806701,-9562,-12394,-11076,2079,1365,-1136
3917826690,-8415,-13238,-11501,2009,1292,-1028
3917846679,-8035,-13838,-11978,1906,1115,-927
3917866668,-7748,-14374,-10370,1854,833,-850
3917886657,-7887,-14664,-9804,1761,669,-783
3917906646,-8435,-14429,-11196,1683,576,-730
3917926635,-7412,-14759,-11437,1560,734,-608
3917946624,-7096,-15400,-10375,1400,787,-482
3917966613,-7291,-15425,-8848,1275,712,-378
3917986602,-6263,-15067,-8816,1165,673,-316
3918006591,-5789,-14807,-8867,1056,461,-302
3918026580,-5633,-14576,-8824,960,168,-275
3918046569,-6096,-14401,-8969,848,74,-224
3918066558,-6328,-14340,-8686,774,137,-156
3918086547,-4889,-14018,-7115,742,224,-91
3918106536,-4454,-13697,-5878,718,131,-102
3918126525,-4784,-13802,-6673,651,-96,-123
3918146514,-5030,-14302,-7192,574,-285,-121
3918166503,-5128,-14689,-6374,514,-237,-97
3918186492,-4712,-14910,-5892,471,-140,-69
3918206481,-4335,-14832,-4958,427,-124,-56
3918226470,-4386,-14770,-5317,375,-183,-55
3918246459,-4157,-15047,-6095,300,-253,-44
3918266448,-4055,-15809,-5346,268,-304,-29
3918286437,-4296,-16389,-4907,238,-418,-34
3918306427,-4767,-16074,-4822,203,-438,-23
3918326416,-4885,-15706,-4938,157,-345,-17
3918346405,-4684,-15801,-5037,106,-378,-28
3918366394,-4326,-15473,-4685,64,-455,-46
3918386383,-4458,-14982,-4368,41,-436,-50
3918406372,-4533,-14965,-4229,43,-425,-64
3918426361,-4469,-15019,-4355,63,-451,-85
3918446350,-4554,-14834,-3670,83,-346,-80
3918466339,-4862,-14877,-2834,106,-194,-61
3918486328,-4547,-15031,-3407,136,-77,-58
3918506317,-4112,-14857,-3494,170,5,-62
3918526306,-4785,-15739,-3538,194,194,-29
3918546295,-4370,-16141,-2740,198,289,25
3918566284,-4573,-14906,-2793,233,209,-14
3918586273,-5431,-15430,-3553,231,176,-95
3918606262,-4149,-15665,-4044,234,151,-137
3918626251,-3436,-15763,-4339,183,216,-136
3918646240,-2959,-15549,-3068,165,259,-112
3918666229,-3855,-15395,-2557,206,112,-124
3918686218,-4487,-15935,-2805,221,-34,-166
3918706207,-6020,-16914,-2158,223,49,-144
3918726196,-4177,-15852,-1449,239,449,-71
3918746185,-3407,-15573,-2953,265,632,-58
3918766174,-4046,-16179,-4377,279,395,-86
3918786163,-3755,-16104,-3346,266,184,-76
3918806152,-5175,-16170,-2998,232,309,-59
3918826141,-4310,-15924,-2581,221,515,-27
3918846130,-4554,-16363,-2991,219,504,-33
3918866119,-2730,-16206,-2628,223,288,-39
3918886108,-4992,-15610,-3226,229,67,-53
3918906097,-4744,-15390,-3717,174,125,-29
3918926086,-3702,-15274,-3489,122,211,0
3918946075,-3331,-15122,-4024,82,161,47
3918966064,-3236,-15463,-3637,69,-27,50
3918986053,-4126,-15716,-3517,45,-154,30
3919006042,-3898,-15669,-3233,19,-6,26
3919026031,-3913,-15682,-2083,18,66,11
3919046020,-4460,-15885,-2296,41,25,3
3919066009,-3931,-15946,-2805,51,103,15
3919085998,-3919,-16009,-2049,47,275,27
3919105987,-3717,-15787,-1770,57,592,47
3919125976,-3269,-15171,-2393,60,886,68
3919145965,-3668,-15252,-3670,38,703,77
3919165954,-4048,-15542,-3593,9,265,40
3919185943,-4039,-15783,-3421,-22,-168,-17
3919205932,-4170,-15811,-3322,4,-368,-46
3919225921,-3536,-15992,-2580,68,-162,-38
3919245910,-3576,-15944,-2425,93,-133,-18
3919265899,-4476,-15790,-2857,106,-43,17
3919285888,-4463,-15998,-2637,91,333,48
3919305877,-4567,-16143,-2768,75,498,63
3919325866,-4608,-15927,-2940,46,602,64
3919345855,-3486,-15445,-1561,38,848,85
3919365844,-3063,-14655,-1173,67,1029,121
3919385833,-2921,-14439,-2953,89,1014,135
3919405822,-2348,-15707,-4155,63,684,137
3919425811,-2731,-15737,-3263,39,334,91
3919445800,-4227,-15758,-2513,50,125,47
3919465789,-4629,-15861,-2848,85,-84,1
3919485778,-3093,-16184,-2244,93,-324,-34
3919505767,-2675,-16322,-2582,81,-936,-85
3919525756,-4147,-15846,-3560,91,-1583,-137
3919545745,-5050,-16079,-2512,109,-1043,-120
3919565734,-4402,-16296,-2255,119,-494,-100
3919585723,-4505,-16437,-2595,124,-304,-95
3919605712,-4410,-16701,-2502,111,-108,-85
3919625701,-4017,-16514,-2626,113,-89,-50
3919645690,-4803,-16635,-2417,91,250,-4
3919665679,-3676,-17145,-1505,73,704,29
3919685668,-3854,-16637,-1617,92,758,84
3919705657,-4095,-16550,-2741,70,596,92
3919725646,-3339,-16057,-2925,53,31,71
3919745635,-6575,-17320,-4404,-35,-779,90
3919765625,-5697,-15999,-5058,-76,-1160,146
3919785614,-4469,-16176,-2710,-192,-566,174
3919805603,-6247,-16185,-1445,-157,-857,271
3919825592,-5593,-16187,-2032,-140,-648,272
3919845581,-3654,-16648,-966,-90,-462,231
3919865570,-5054,-16818,-1897,11,-895,255
3919885559,-5272,-16846,-2839,12,-578,151
3919905548,-4059,-17526,-1043,2,267,89
3919925537,-5317,-17317,-1061,31,377,274
3919945526,-5882,-17604,-1736,103,382,330
3919965515,-5466,-17557,-2165,151,523,279
3919985504,-5225,-17446,-3088,118,670,287
3920005493,-3987,-17204,-3896,-5,933,357
3920025482,-3269,-17035,-3693,-141,818,435
3920045471,-3003,-16722,-3686,-234,361,503
3920065460,-3528,-16431,-3919,-308,-248,567
3920085449,-3992,-16302,-3609,-386,-883,628
3920105438,-4843,-16399,-3325,-461,-1380,691
3920125427,-5748,-16099,-3092,-544,-1596,767
3920145416,-6603,-15432,-2855,-585,-1731,800
3920165405,-7207,-14918,-2652,-604,-1701,792
3920185394,-7514,-14678,-2360,-612,-1617,765
3920205383,-7574,-14465,-1829,-590,-1514,746
3920225372,-7487,-14162,-825,-543,-1431,734
3920245361,-7649,-13922,40,-464,-1442,714
3920265350,-7674,-13728,380,-374,-1483,721
3920285339,-8334,-13672,424,-283,-1536,713
3920305328,-9417,-13417,384,-247,-1423,733
3920325317,-8814,-13555,1449,-185,-1529,728
3920345306,-8637,-13383,2426,1,-2056,718
3920365295,-8871,-12942,2667,200,-2438,714
3920385284,-9624,-12689,2979,330,-2528,702
3920405273,-10470,-12980,3653,426,-2477,665
3920425262,-11148,-13081,4070,513,-2330,654
3920445251,-10875,-13116,4213,619,-2144,659
3920465240,-10138,-12941,4131,750,-1939,668
3920485229,-9533,-12467,4133,812,-1678,688
3920505218,-9303,-12247,4213,812,-1475,697
3920525207,-9594,-12388,3769,798,-1318,690
3920545196,-9880,-11977,3252,754,-1182,690
3920565185,-9870,-11508,3076,712,-1116,706
3920585174,-10020,-11001,3220,685,-1078,720
3920605163,-10526,-10528,3565,645,-1045,702
3920625152,-10941,-10145,4225,606,-982,672
3920645141,-11551,-9885,4540,580,-911,656
3920665130,-11930,-9703,4586,542,-830,691
3920685119,-11919,-9762,4718,464,-749,735
3920705108,-11916,-9463,5203,370,-715,794
3920725097,-11762,-9109,5787,305,-730,881
3920745086,-11718,-8697,6418,256,-759,974
3920765075,-11650,-8132,6994,210,-814,1048
3920785064,-11412,-7617,7408,158,-848,1089
3920805053,-11124,-7156,7478,107,-870,1070
3920825042,-10733,-6724,7309,54,-853,1013
3920845031,-10272,-6506,7081,-5,-802,941
3920865020,-9714,-6093,7380,-71,-727,866
3920885009,-8868,-5690,7867,-134,-683,784
3920904998,-8167,-5715,8081,-195,-630,687
3920924987,-8111,-5436,8273,-246,-459,550
3920944976,-8105,-5130,8615,-285,-239,377
3920964965,-8187,-4923,8900,-303,-44,174
3920984954,-8692,-4629,9274,-296,118,-34
3921004943,-9248,-4553,9815,-275,177,-233
3921024932,-10243,-4916,10443,-268,17,-398
3921044921,-11802,-5531,11210,-269,-361,-495
3921064910,-12401,-5957,12048,-259,-889,-492
3921084899,-12007,-6571,12103,-253,-1465,-440
3921104888,-11256,-7479,11632,-257,-1706,-372
3921124877,-10087,-8327,11410,-295,-1500,-326
3921144866,-9127,-8862,11655,-354,-1048,-311
3921164855,-8759,-9164,12175,-401,-538,-311
3921184844,-8917,-9366,12673,-424,-87,-308
3921204833,-9529,-9495,12865,-409,228,-281
3921224822,-10059,-9464,12784,-365,426,-228
3921244812,-10327,-9326,12413,-290,460,-159
3921264801,-10247,-9151,11946,-199,359,-85
3921284790,-9976,-8921,11426,-107,185,-19
3921304779,-9663,-8625,10888,-32,19,29
3921324768,-9484,-8432,10472,21,-78,55
3921344757,-9423,-8394,10340,47,-80,51
3921364746,-9530,-8394,10391,54,-37,26
3921384735,-9684,-8246,10537,49,21,4
3921404724,-9685,-8168,10470,31,73,-10
3921424713,-9555,-8313,10238,5,137,-22
3921444702,-9371,-8447,10107,-24,214,-33
3921464691,-9488,-8565,10056,-58,254,-42
3921484680,-9634,-8646,10083,-96,222,-46
3921504669,-9622,-8800,10054,-135,137,-46
3921524658,-9714,-8884,10016,-166,51,-42
3921544647,-9880,-8892,10144,-191,-17,-34
3921564636,-10068,-8933,10216,-203,-86,-19
3921584625,-10255,-9143,10217,-200,-144,4
3921604614,-10429,-9394,10203,-183,-194,35
3921624603,-10469,-9503,10122,-156,-229,74
3921644592,-10399,-9552,10061,-125,-209,116
3921664581,-10423,-9499,10165,-100,-163,159
3921684570,-10502,-9351,10295,-80,-106,211
3921704559,-10492,-9213,10272,-64,-46,273
3921724548,-10264,-9137,10100,-53,30,337
3921744537,-10049,-9086,9954,-50,119,383
3921764526,-10076,-9045,9998,-54,204,408
3921784515,-10363,-8916,10158,-55,237,420
3921804504,-10343,-8738,10223,-51,205,424
3921824493,-10338,-8595,10358,-38,173,419
3921844482,-10600,-8531,10551,-25,112,421
3921864471,-10732,-8612,10370,-9,10,422
3921884460,-10935,-8609,10523,19,-56,415
3921904449,-10615,-8550,10341,30,-149,414
3921924438,-9467,-8642,9485,37,-136,408
3921944427,-8032,-8704,8740,19,122,357
3921964416,-6864,-8686,8103,-61,505,220
3921984405,-6379,-8646,7679,-179,955,14
3922004394,-6042,-8465,7197,-309,1370,-216
3922024383,-6424,-8175,6680,-418,1729,-449
3922044372,-8196,-8141,7352,-496,2114,-722
3922064361,-11465,-8248,9836,-530,1983,-1032
3922084350,-13091,-8044,8525,-520,766,-1211
3922104339,-12398,-8001,8213,-364,-175,-1292
3922124328,-10546,-7693,9849,-375,-759,-1357
3922144317,-10618,-7572,9333,-469,-1114,-1293
3922164306,-10198,-6705,8111,-537,-939,-1206
3922184295,-9917,-8481,6490,-569,-136,-1236
3922204284,-7407,-7947,6853,-550,1285,-1304
3922224273,-7637,-8668,6421,-559,2070,-1417
3922244262,-8654,-9132,5280,-529,2619,-1463
3922264251,-8767,-9571,4638,-470,3007,-1432
3922284240,-8918,-10384,4149,-378,3162,-1377
3922304229,-9131,-11323,3672,-248,3155,-1314
3922324218,-8870,-11805,3129,-109,2981,-1259
3922344207,-8619,-11991,2826,7,2572,-1246
3922364196,-8483,-12435,2526,104,2119,-1257
3922384185,-8298,-13103,2481,192,1815,-1249
3922404174,-8275,-14070,1333,280,1780,-1217
3922424163,-8499,-14687,-37,310,1980,-1192
3922444152,-8060,-15000,462,250,2107,-1176
3922464141,-6429,-15059,1358,174,2004,-1119
3922484130,-4804,-15135,1242,138,1917,-1046
3922504119,-4140,-15309,1432,94,2003,-1045
3922524108,-4643,-16225,1476,85,2094,-1100
3922544097,-5278,-17076,1014,148,1949,-1151
3922564086,-4540,-17552,34,257,1431,-1192
3922584075,-3797,-17763,-310,319,743,-1210
3922604064,-3337,-18081,596,302,325,-1135
3922624053,-4065,-18527,1552,252,196,-938
3922644042,-5324,-18653,1190,113,410,-653
3922664031,-4763,-18642,566,-19,761,-406
3922684020,-3468,-18488,39,-107,941,-251
3922704010,-2694,-18370,38,-155,1012,-163
3922723999,-1907,-18219,344,-186,1113,-142
3922743988,-828,-17801,-25,-192,1148,-166
3922763977,-838,-17711,-754,-182,1106,-222
3922783966,-1574,-17567,-1745,-199,1182,-265
3922803955,-1945,-16901,-2118,-217,1367,-234
3922823944,-1267,-16816,-2117,-203,1475,-156
3922843933,-479,-16826,-2607,-274,1561,-117
3922863922,-1541,-17194,-2401,-350,1385,-78
3922883911,-1114,-16704,-1375,-308,942,-60
3922903900,-2611,-16370,-750,-159,437,-33
3922923889,-3457,-16819,-646,-112,513,20
3922943878,-4088,-17803,-1195,-161,902,38
3922963867,-3970,-18071,-1624,-194,1225,13
3922983856,-3903,-17730,-2179,-161,1211,-22
3923003845,-4410,-17593,-2282,-100,1157,-14
3923023834,-3113,-17531,-2367,-57,1171,23
3923043823,-2484,-17177,-3539,-96,794,17
3923063812,-3458,-16638,-4805,-98,261,22
3923083801,-3527,-16206,-4431,-81,-95,15
3923103790,-2327,-16084,-3247,-92,-265,-10
3923123779,-2177,-16068,-2974,-98,-366,-4
3923143768,-2396,-16103,-3170,-75,-256,9
3923163757,-1629,-16059,-2899,-14,-150,-4
3923183746,-1157,-15756,-2549,-9,-233,-29
3923203735,-1521,-15894,-2279,-22,-236,-57
3923223724,-2330,-15495,-2362,-20,-231,-47
3923243713,-2247,-15188,-2120,-29,-301,-29
3923263702,-2404,-15595,-2101,-30,-392,-12
3923283691,-3585,-16180,-2456,-14,-356,12
3923303680,-4368,-16083,-3076,-69,-52,37
3923323669,-3476,-16379,-2471,-140,387,58
3923343658,-2140,-16373,-1957,-109,471,104
3923363647,-1661,-16659,-2269,-45,242,115
3923383636,-2625,-17045,-2776,-44,226,76
3923403625,-2546,-16550,-2317,-48,323,9
3923423614,-2111,-16258,-2098,-67,242,-10
3923443603,-2955,-16151,-2765,-81,119,14
3923463592,-3435,-15830,-2599,-89,225,2
3923483581,-2789,-15811,-1734,-81,297,-10
3923503570,-3277,-15977,-1846,-34,253,-13
3923523559,-3490,-16168,-2376,-10,151,-13
3923543548,-3379,-16189,-3006,4,-20,-18
3923563537,-2778,-16267,-2976,-14,-44,-26
3923583526,-2280,-16309,-2739,-29,-13,-28
3923603515,-2497,-16217,-2933,-14,-58,-21
3923623504,-2542,-16035,-3232,-10,2,0
3923643493,-2202,-15899,-3267,-19,93,9
3923663482,-2370,-15976,-3385,-10,56,5
3923683471,-2562,-16000,-3572,-5,18,9
3923703460,-2315,-16087,-3402,4,36,0
3923723449,-2832,-16165,-3163,19,77,-18
3923743438,-3010,-15875,-2762,32,156,-34
3923763427,-3003,-15717,-2783,40,136,-47
3923783416,-3075,-16173,-2946,45,116,-73
3923803405,-3194,-16654,-3310,22,39,-113
3923823394,-2726,-16665,-3828,8,-165,-153
3923843383,-2604,-17008,-3819,-3,-380,-245
3923863372,-2974,-16562,-3309,-35,-562,-323
3923883361,-3297,-16133,-2539,-64,-676,-348
3923903350,-3108,-16253,-2260,-41,-638,-354
3923923339,-1761,-15552,-1459,29,-405,-327
3923943328,-1375,-14991,-1114,93,-261,-287
3923963317,-1294,-15099,-1647,77,-241,-227
3923983306,-155,-14771,-2174,24,-321,-155
3924003295,671,-15441,-1896,-33,-418,-174
3924023284,-97,-15673,-1463,-89,-552,-160
3924043273,-845,-15798,-747,-157,-477,-102
3924063262,-1042,-15983,-1149,-135,-266,-43
3924083251,-912,-16141,-2479,-77,-92,-6
3924103240,-1354,-16461,-3612,-61,-31,21
3924123229,-3001,-16045,-4845,-26,47,16
3924143218,-3358,-15390,-5345,20,291,16
3924163208,-2028,-14869,-5055,37,435,21
3924183197,-2062,-15327,-4024,59,243,-20
3924203186,-1818,-15867,-2774,48,24,-30
3924223175,-1428,-16039,-1571,28,-142,-32
3924243164,-1101,-16194,-1416,43,-252,-44
3924263153,-1412,-16548,-1446,9,-326,-47
3924283142,-1598,-16679,-784,-59,-296,-44
3924303131,-1966,-17019,-1337,-77,-186,-37
3924323120,-1936,-16229,-3479,-45,-85,-52
3924343109,-1867,-15264,-4395,-50,-108,-75
3924363098,-1618,-14623,-4656,-77,-116,-82
3924383087,-1919,-14926,-4282,-150,64,-82
3924403076,-1865,-15771,-3833,-222,155,-79
3924423065,-871,-16179,-3181,-300,17,-71
3924443054,-525,-16433,-1776,-368,-129,-59
3924463043,-2057,-16254,-490,-398,-56,-45
3924483032,-2386,-16347,-1571,-400,-23,-21
3924503021,-1006,-16373,-3425,-436,-109,-21
3924523010,74,-15752,-3881,-522,-319,-36
3924542999,-1650,-15909,-3035,-582,-458,-27
3924562988,-2943,-15765,-3222,-538,-316,-5
3924582977,-2254,-15590,-5367,-417,-150,1
3924602966,-1259,-15154,-6713,-295,-36,16
3924622955,-2029,-15499,-5414,-193,-1,20
3924642944,-1654,-16757,-3851,-133,103,54
3924662933,-711,-17948,-3086,-149,89,72
3924682922,-1201,-18719,-2449,-232,-43,52
3924702911,-2694,-18342,-3333,-339,-85,22
3924722900,-3443,-17372,-5921,-382,-48,-11
3924742889,-2039,-16363,-7544,-329,-30,-48
3924762878,-852,-16634,-6159,-255,-166,-69
3924782867,-1875,-17284,-4814,-209,-177,-36
3924802856,-2100,-17440,-5242,-161,82,40
3924822845,-1766,-16657,-6403,-102,75,74
3924842834,-2637,-16798,-6968,-61,-80,43
3924862823,-2450,-17567,-6595,-18,-113,-17
3924882812,-1848,-17220,-6390,-29,-36,-42
3924902801,-2461,-16703,-6535,-74,-80,-75
3924922790,-2477,-15895,-6751,-58,-164,-116
3924942779,-1969,-14769,-5580,-52,-175,-137
3924962768,-1685,-14222,-3467,-187,-211,-144
3924982757,-1649,-13793,-2067,-352,-187,-119
3925002746,-1787,-12378,-2972,-464,-99,-54
3925022735,-2109,-10021,-5138,-533,-27,15
3925042724,-3201,-8698,-6253,-537,-67,25
3925062713,-2818,-9831,-5832,-407,12,46
3925082702,51,-11680,-3794,-238,160,156
3925102691,612,-12660,-3234,-240,269,349
3925122680,-1626,-12329,-5567,-353,353,521
3925142669,-1846,-13616,-6813,-437,320,542
3925162658,-1424,-14505,-7054,-441,144,453
3925182647,-1904,-14612,-7381,-388,101,384
3925202636,-1481,-15354,-7194,-319,171,329
3925222625,-1397,-15334,-7447,-244,165,287
3925242614,-1755,-15124,-7245,-196,187,236
3925262603,-1967,-15630,-6174,-168,200,156
3925282592,-1753,-15587,-6851,-159,187,76
3925302581,-1928,-15303,-7315,-171,134,-5
3925322570,-1822,-15324,-6722,-190,43,-72
3925342559,-1829,-14954,-7038,-206,-23,-100
3925362548,-2115,-14594,-6965,-200,-34,-114
3925382537,-2282,-14399,-6991,-174,-81,-140
3925402526,-2415,-14241,-7800,-161,-126,-167
3925422515,-2583,-14130,-7769,-168,-120,-196
3925442504,-2337,-14001,-7634,-160,-109,-209
3925462493,-2432,-14193,-8030,-153,-95,-202
3925482482,-2563,-14632,-8468,-176,-95,-198
3925502471,-2713,-15060,-8953,-210,-99,-191
3925522460,-2700,-15707,-9359,-267,-79,-165
3925542449,-3620,-16108,-9900,-380,-12,-136
3925562438,-3375,-16591,-9076,-494,17,-129
3925582427,-3031,-16465,-10481,-630,-18,-104
3925602416,-3876,-16240,-11623,-770,-30,-51
3925622406,-4275,-16335,-12111,-948,64,31
3925642395,-4317,-16337,-12857,-1136,112,107
3925662384,-4561,-15760,-13631,-1321,122,198
3925682373,-4576,-15056,-13956,-1539,168,304
3925702362,-4496,-13961,-14366,-1760,220,412
3925722351,-4584,-13086,-14768,-1951,196,497
3925742340,-4308,-12373,-15310,-2104,121,582
3925762329,-4096,-11602,-15494,-2250,73,676
3925782318,-4000,-11113,-14852,-2392,-15,762
3925802307,-3637,-10455,-15607,-2516,-106,845
3925822296,-3782,-10328,-16131,-2661,-224,888
3925842285,-4163,-10224,-16734,-2847,-340,894
3925862274,-3589,-10004,-16773,-3014,-394,913
3925882263,-3232,-8930,-15782,-3157,-513,933
3925902252,-3312,-7509,-16432,-3265,-617,928
3925922241,-3028,-6783,-15138,-3324,-737,897
3925942230,-3542,-5716,-14748,-3370,-837,888
3925962219,-3285,-4565,-15053,-3395,-804,898
3925982208,-2983,-3693,-14147,-3381,-757,888
3926002197,-3441,-2748,-12951,-3339,-672,873
3926022186,-3676,-1520,-12385,-3297,-342,855
3926042175,-3549,-563,-12018,-3221,-58,792
3926062164,-3374,-52,-12124,-3116,15,707
3926082153,-3829,590,-12510,-3002,93,632
3926102142,-4349,1511,-11041,-2802,280,562
3926122131,-4191,2921,-9307,-2586,235,441
3926142120,-4615,4365,-9731,-2394,316,326
3926162109,-4520,5679,-8408,-2149,309,216
3926182098,-4578,6888,-7141,-1866,212,137
3926202087,-4539,7937,-6505,-1578,280,110
3926222076,-5020,9067,-5139,-1260,239,121
3926242065,-3915,9566,-6213,-977,439,148
3926262054,-3832,9808,-6893,-794,555,145
3926282043,-4654,10158,-6302,-584,589,121
3926302032,-4298,10513,-6663,-340,746,71
3926322021,-3741,10498,-6934,-113,825,5
3926342010,-3702,10381,-6818,139,784,-39
3926361999,-3755,10117,-7055,411,724,-53
3926381988,-3659,9902,-6537,704,646,-43
3926401977,-3659,9902,-6537,1006,593,-27
3926421966,-3229,9569,-5813,1006,593,-27
3926441955,-2388,8889,-6561,1304,469,-24
3926461944,-3038,8036,-7633,1596,347,-26
3926481933,-3434,7584,-7158,1910,286,-39
3926501922,-2600,6977,-6840,2186,188,-68
3926521911,-2107,6160,-8694,2413,34,-110
3926541900,-2184,5256,-9705,2575,-175,-143
3926561889,-1948,4745,-8738,2721,-314,-185
3926581878,-1951,3715,-10657,2901,-451,-258
3926601867,-2585,2578,-14143,3192,-392,-307
3926621856,-2382,1255,-11845,3455,-128,-323
3926641845,-1098,-764,-8926,3609,-350,-393
3926661834,-1669,-3089,-11878,3769,-537,-519
3926681823,-1752,-5485,-12759,3893,-389,-605
3926701812,-2798,-7611,-12042,3866,-206,-700
3926721801,-1971,-9579,-11813,3842,45,-779
3926741790,-877,-12536,-11600,3844,89,-851
3926761779,-1903,-13994,-13149,3798,-17,-886
3926781768,-2342,-15151,-14714,3771,121,-873
3926801757,-1811,-16461,-14753,3713,178,-799
3926821746,-2587,-17174,-16007,3590,-20,-767
3926841735,-3841,-18123,-13693,3426,-54,-746
3926861724,-3641,-18237,-13901,3279,-34,-704
3926881713,-3765,-17839,-14105,3103,23,-649
3926901702,-3577,-18335,-12124,2898,-30,-619
3926921691,-3538,-18850,-12724,2666,-167,-567
3926941680,-5125,-18879,-12379,2372,-144,-479
3926961669,-5390,-19309,-11970,2004,-130,-437
3926981658,-5305,-18584,-13186,1651,-216,-408
3927001647,-5780,-18475,-13160,1294,-234,-333
3927021636,-6337,-17969,-13722,897,-245,-219
3927041625,-6582,-17016,-14094,476,-238,-105
3927061614,-6162,-16266,-14062,80,-263,-12
3927081604,-6132,-15051,-14967,-282,-295,85
3927101593,-6350,-14577,-14514,-625,-258,201
3927121582,-6029,-14127,-14543,-956,-243,325
3927141571,-5831,-14034,-14092,-1277,-241,453
3927161560,-5705,-14195,-14498,-1569,-144,620
3927181549,-5224,-15013,-14421,-1853,-36,796
3927201538,-5177,-15302,-14390,-2169,18,963
3927221527,-4751,-15343,-14847,-2507,92,1104
3927241516,-5027,-15624,-14575,-2817,169,1214
3927261505,-4590,-15261,-15183,-3061,117,1295
3927281494,-4896,-14810,-15134,-3262,24,1388
3927301483,-4700,-13926,-14944,-3399,103,1505
3927321472,-4990,-12730,-15421,-3536,138,1549
3927341461,-5409,-12243,-15752,-3689,34,1508
3927361450,-5384,-11384,-15556,-3828,-23,1457
3927381439,-5454,-9980,-15993,-3944,-49,1402
3927401428,-5285,-8694,-14836,-3984,-104,1319
3927421417,-5125,-7362,-15408,-3980,-126,1234
3927441406,-5496,-6266,-14678,-4008,-164,1148
3927461395,-5104,-4619,-12412,-3957,-69,1074
3927481384,-4492,-3263,-13685,-3862,64,982
3927501373,-4172,-2351,-12215,-3787,138,856
3927521362,-4337,-937,-10971,-3641,292,732
3927541351,-3542,-118,-11497,-3408,414,582
3927561340,-3276,767,-9999,-3188,284,421
3927581329,-3381,2468,-8838,-2957,211,299
3927601318,-3413,4261,-8390,-2675,341,197
3927621307,-3164,6002,-7018,-2377,336,101
3927641296,-3272,7397,-6476,-2105,386,46
3927661285,-3585,8408,-6144,-1821,460,23
3927681274,-3669,9397,-5033,-1562,460,5
3927701263,-3987,10146,-4876,-1303,499,22
3927721252,-3784,10497,-5200,-1022,538,46
3927741241,-4556,10673,-5054,-753,564,65
3927761230,-5043,10909,-4535,-436,575,61
3927781219,-4762,10838,-4950,-109,517,54
3927801208,-4574,10645,-5275,184,386,52
3927821197,-4666,10520,-5546,492,204,62
3927841186,-4886,10400,-5736,837,22,67
3927861175,-4429,10393,-5081,1148,-11,63
3927881164,-3681,10271,-5161,1417,-27,54
3927901153,-3859,9862,-5985,1705,-22,42
3927921142,-3329,8946,-6849,2011,4,34
3927941131,-3001,8093,-7514,2252,-97,-5
3927961120,-2660,7613,-7951,2447,-230,-72
3927981109,-2611,6657,-9610,2601,-380,-154
3928001098,-1994,5895,-11405,2743,-477,-249
3928021087,-2711,5035,-11849,2823,-547,-353
3928041076,-2928,4314,-12429,2938,-862,-490
3928061065,-3678,2582,-14057,3159,-975,-646
3928081054,-2964,1365,-12596,3391,-715,-761
3928101043,-3126,-835,-8757,3462,-761,-897
3928121032,-3394,-3403,-11145,3513,-729,-1093
3928141021,-4791,-4853,-13075,3571,-242,-1251
3928161010,-3205,-7171,-9760,3623,76,-1382
3928180999,-2278,-10929,-8282,3663,-38,-1525
3928200988,-4438,-11459,-11986,3642,91,-1546
3928220977,-3587,-12393,-14619,3645,350,-1540
3928240966,-2499,-15131,-12591,3645,327,-1507
3928260955,-3227,-16059,-12424,3607,179,-1408
3928280944,-3501,-15667,-13116,3606,216,-1298
3928300933,-2738,-16431,-13003,3595,222,-1232
3928320922,-3521,-18140,-12204,3442,164,-1177
3928340911,-4176,-18988,-12840,3264,149,-1104
3928360900,-4373,-19517,-12663,3047,111,-1041
3928380889,-5001,-20595,-10637,2784,50,-1020
3928400878,-5869,-20388,-12605,2478,-31,-1005
3928420867,-5752,-19745,-13978,2158,79,-886
3928440856,-6061,-20139,-12169,1785,186,-706
3928460845,-6792,-20563,-11402,1362,214,-541
3928480834,-7227,-19695,-12133,910,200,-400
3928500823,-7334,-18273,-13082,530,214,-254
3928520812,-7386,-17087,-13801,172,279,-56
3928540802,-7034,-15750,-14180,-182,311,140
3928560791,-7029,-14891,-14242,-516,287,274
3928580780,-6699,-14283,-14254,-833,288,404
3928600769,-5928,-14035,-14567,-1126,262,550
3928620758,-5725,-13983,-14557,-1417,237,711
3928640747,-5107,-14592,-13741,-1709,260,876
3928660736,-4291,-15075,-13556,-1957,251,1041
3928680725,-4517,-15421,-13802,-2208,153,1181
3928700714,-4590,-15841,-13834,-2462,-14,1301
3928720703,-4320,-15752,-15207,-2737,-128,1411
3928740692,-4239,-16260,-14987,-3034,-268,1503
3928760681,-4797,-15743,-16021,-3349,-482,1572
3928780670,-5303,-14922,-15517,-3597,-557,1604
3928800659,-5305,-13779,-15722,-3749,-591,1630
3928820648,-5276,-12630,-15218,-3878,-652,1635
3928840637,-5843,-11256,-15119,-3954,-735,1624
3928860626,-6437,-10004,-15350,-3961,-742,1609
3928880615,-6565,-9162,-16117,-4001,-587,1574
3928900604,-6084,-8215,-13798,-4026,-574,1527
3928920593,-6275,-6672,-13871,-3997,-515,1503
3928940582,-5472,-5049,-11776,-3913,-362,1443
3928960571,-5526,-3585,-12272,-3820,-197,1366
3928980560,-5266,-2511,-11511,-3689,53,1258
3929000549,-5157,-1482,-10969,-3549,317,1110
3929020538,-4881,-296,-10757,-3395,467,932
3929040527,-4555,1296,-9469,-3192,455,737
3929060516,-4535,2915,-9001,-2991,560,576
3929080505,-4087,4222,-7972,-2738,616,434
3929100494,-3899,5739,-6353,-2471,648,322
3929120483,-3662,7151,-5613,-2251,680,244
3929140472,-4210,8203,-5618,-2016,655,175
3929160461,-4512,9314,-4441,-1764,578,126
3929180450,-4657,10557,-3454,-1509,639,88
3929200439,-4640,11146,-4683,-1256,883,59
3929220428,-5029,11540,-4776,-1008,892,14
3929240417,-5674,11579,-4637,-767,794,-21
3929260406,-6206,11609,-4375,-488,761,-53
3929280395,-5777,11598,-4652,-219,712,-58
3929300384,-5992,11735,-4842,42,584,-27
3929320373,-6174,11644,-4919,313,426,13
3929340362,-6118,11492,-5248,570,242,49
3929360351,-5654,11480,-4944,831,76,87
3929380340,-5108,11284,-4649,1060,-31,143
3929400329,-4846,11072,-4617,1276,-104,198
3929420318,-4686,10615,-4977,1535,-151,246
3929440307,-4211,9498,-6308,1806,-136,283
3929460296,-3636,8679,-7257,2032,-116,286
3929480285,-3712,8243,-8015,2199,-112,266
3929500274,-2906,8054,-7932,2361,-179,217
3929520263,-1524,7394,-9538,2509,-393,117
3929540252,-2660,6332,-11430,2670,-622,-67
3929560241,-2456,5692,-9359,2816,-730,-254
3929580230,-2271,4314,-9610,2978,-863,-458
3929600219,-2810,2639,-12308,3244,-916,-673
3929620208,-4324,1203,-13157,3429,-755,-841
3929640197,-3753,255,-12838,3431,-375,-923
3929660186,-2054,-1269,-11002,3480,-474,-1063
3929680175,-2354,-3981,-8739,3659,-744,-1286
3929700164,-5819,-5168,-14770,3675,-311,-1429
3929720153,-4869,-6167,-13587,3533,396,-1473
3929740142,-3303,-10202,-9615,3395,438,-1553
3929760131,-3722,-13116,-11233,3433,176,-1580
3929780120,-5068,-14730,-12860,3463,144,-1507
3929800109,-4899,-15544,-12524,3417,212,-1401
3929820098,-5233,-16202,-12197,3405,153,-1343
3929840087,-3763,-16821,-12920,3424,108,-1313
3929860076,-5101,-17447,-14918,3343,25,-1262
3929880065,-5550,-18794,-13675,3187,100,-1147
3929900054,-5090,-19403,-12309,2991,11,-1045
3929920043,-5444,-18626,-12613,2797,-116,-981
3929940032,-5136,-17993,-13405,2587,-115,-916
3929960021,-6028,-18528,-11854,2329,-51,-812
3929980010,-5885,-19043,-10799,2046,-79,-726
3930000000,-6405,-18491,-12043,1745,-76,-631
3930019989,-6537,-17624,-12057,1407,32,-511
3930039978,-6352,-17458,-11699,1055,69,-407
3930059967,-6719,-16783,-12451,779,65,-282
3930079956,-6923,-15746,-12939,525,159,-122
3930099945,-6395,-15216,-12689,241,265,39
3930119934,-6551,-15014,-12251,-44,259,170
3930139923,-6575,-14789,-11846,-299,264,287
3930159912,-5692,-14703,-12369,-543,316,406
3930179901,-5858,-14789,-12763,-814,297,526
3930199890,-6242,-15337,-12537,-1067,266,638
3930219879,-6013,-15621,-12402,-1326,259,725
3930239868,-5542,-15806,-12918,-1607,283,828
3930259857,-5313,-16161,-12986,-1885,248,941
3930279846,-4925,-16213,-13400,-2140,208,1074
3930299835,-5258,-16097,-13845,-2377,168,1177
3930319824,-5413,-16042,-14606,-2646,88,1216
3930339813,-5147,-15859,-14937,-2909,-57,1250
3930359802,-5022,-15047,-14764,-3117,-228,1319
3930379791,-5301,-13804,-14873,-3265,-367,1396
3930399780,-5836,-12997,-14049,-3401,-542,1409
3930419769,-5561,-11607,-14417,-3540,-654,1394
3930439758,-5766,-10344,-15449,-3668,-617,1403
3930459747,-5928,-9823,-14582,-3742,-562,1404
3930479736,-6009,-8589,-14810,-3743,-646,1407
3930499725,-5880,-7392,-14236,-3734,-631,1414
3930519714,-6485,-6069,-13362,-3720,-511,1397
3930539703,-6713,-4817,-13111,-3683,-394,1338
3930559692,-6265,-3730,-13063,-3631,-208,1249
3930579681,-5471,-3228,-13119,-3568,47,1127
3930599670,-5506,-2040,-10900,-3488,-8,976
3930619659,-5296,-389,-9985,-3369,10,847
3930639648,-5123,861,-10912,-3225,197,722
3930659637,-5276,1668,-10290,-3027,267,574
3930679626,-5213,2733,-9201,-2833,375,439
3930699615,-5143,4284,-8150,-2630,480,326
3930719604,-4826,5982,-7208,-2365,633,246
3930739593,-5176,7549,-5739,-2083,645,148
3930759582,-5559,8606,-5765,-1864,618,52
3930779571,-5577,9482,-5689,-1651,705,-22
3930799560,-5443,10191,-5471,-1463,675,-84
3930819549,-6388,10938,-4790,-1281,490,-108
3930839538,-5912,11313,-5020,-1088,453,-112
3930859527,-6247,11303,-5956,-938,552,-119
3930879516,-6712,11588,-5668,-751,610,-124
3930899505,-6753,11451,-5839,-521,543,-147
3930919494,-6796,11387,-5497,-335,408,-154
3930939483,-6417,10901,-6225,-167,294,-148
3930959472,-7114,10717,-6387,24,207,-137
3930979461,-7342,10951,-5511,267,149,-102
3930999450,-6865,10949,-5121,519,83,-41
3931019439,-6264,10731,-5459,742,128,56
3931039428,-6080,10489,-5075,946,192,156
3931059417,-6154,10130,-5367,1122,41,205
3931079406,-6116,9526,-6299,1329,-93,222
3931099395,-5570,9295,-5860,1566,-183,205
3931119384,-5512,9047,-6246,1803,-210,167
3931139373,-5132,8639,-7046,2067,-167,135
3931159362,-3814,7707,-8747,2266,-134,101
3931179351,-4230,7461,-8941,2382,-250,17
3931199340,-4264,7420,-9854,2471,-482,-103
3931219329,-3701,6975,-9539,2652,-523,-233
3931239318,-3436,5913,-9049,2867,-690,-416
3931259307,-4306,4474,-9354,3101,-971,-630
3931279296,-4866,2401,-11614,3322,-651,-772
3931299285,-4429,758,-9964,3373,-365,-870
3931319274,-4515,-1386,-9434,3381,-471,-1043
3931339263,-3414,-3584,-8311,3491,-547,-1230
3931359252,-5217,-5857,-10346,3579,-317,-1382
3931379241,-4858,-6707,-13135,3611,-36,-1487
3931399230,-5638,-8491,-12700,3616,19,-1595
3931419219,-4618,-11114,-10942,3675,255,-1642
3931439208,-4173,-13391,-12683,3663,203,-1653
3931459197,-6378,-14811,-14831,3565,121,-1648
3931479187,-6543,-15602,-15258,3437,315,-1600
3931499176,-4615,-16767,-13103,3298,477,-1515
3931519165,-4584,-19213,-12432,3164,427,-1411
3931539154,-6102,-19065,-14214,2953,446,-1229
3931559143,-6720,-18238,-14661,2711,609,-1054
3931579132,-7319,-18073,-12913,2463,671,-979
3931599121,-6132,-17805,-12006,2203,639,-967
3931619110,-4495,-17524,-12458,1948,574,-924
3931639099,-5481,-16520,-12599,1738,575,-787
3931659088,-5794,-15793,-11517,1605,484,-672
3931679077,-5770,-15855,-10972,1484,373,-623
3931699066,-5527,-15654,-10600,1330,360,-562
3931719055,-5640,-15157,-11563,1159,375,-467
3931739044,-4965,-15214,-11339,940,478,-332
3931759033,-4943,-15920,-10511,686,566,-176
3931779022,-4670,-16618,-10257,427,502,-59
3931799011,-5619,-16217,-10738,188,398,1
3931819000,-5238,-15926,-11331,-49,426,63
3931838989,-4397,-15945,-11478,-312,416,165
3931858978,-4573,-15893,-11989,-561,364,281
3931878967,-5293,-15740,-12454,-790,350,381
3931898956,-4876,-15830,-12800,-1058,347,464
3931918945,-4443,-16169,-12733,-1322,247,542
3931938934,-4718,-16183,-13263,-1576,113,638
3931958923,-4288,-16388,-13256,-1835,36,735
3931978912,-4641,-16675,-13229,-2084,-73,803
3931998901,-4578,-16225,-14076,-2334,-229,844
3932018890,-4655,-16035,-14500,-2561,-339,881
3932038879,-4133,-15471,-14063,-2729,-433,927
3932058868,-4345,-14678,-14217,-2861,-475,1001
3932078857,-4116,-13699,-14442,-2976,-539,1064
3932098846,-4349,-12953,-13949,-3112,-728,1109
3932118835,-4617,-11708,-14447,-3251,-780,1152
3932138824,-4800,-10833,-15225,-3361,-686,1154
3932158813,-4310,-10333,-14195,-3447,-659,1122
3932178802,-4486,-9177,-14928,-3515,-640,1121
3932198791,-4649,-7889,-14445,-3535,-517,1136
3932218780,-5014,-6623,-13177,-3520,-474,1121
3932238769,-5155,-5391,-13189,-3464,-559,1073
3932258758,-5671,-4499,-14847,-3445,-477,1017
3932278747,-6128,-4042,-12895,-3400,-312,945
3932298736,-5261,-3194,-13122,-3310,-149,867
3932318725,-4993,-2009,-10838,-3150,-351,757
3932338714,-5791,-701,-10301,-2993,-361,695
3932358703,-5511,190,-11676,-2888,-122,619
3932378692,-5725,1153,-10533,-2741,-115,485
3932398681,-5834,2173,-9659,-2565,-187,364
3932418670,-5804,3831,-8681,-2371,-131,270
3932438659,-6054,5252,-8769,-2234,77,205
3932458648,-5906,6954,-7529,-2108,77,146
3932478637,-5984,8003,-7795,-1983,211,127
3932498626,-5624,9082,-6877,-1847,383,87
3932518615,-6039,10203,-5810,-1715,454,43
3932538604,-6142,10760,-6346,-1579,683,0
3932558593,-6475,10774,-6841,-1463,753,-72
3932578582,-6530,11018,-6245,-1329,698,-171
3932598571,-6746,11172,-5836,-1152,763,-241
3932618560,-6925,11374,-5318,-949,656,-284
3932638549,-6834,10952,-5408,-753,516,-297
3932658538,-7571,10699,-5118,-559,474,-281
3932678527,-8141,10618,-4517,-298,442,-233
3932698516,-7582,10348,-4624,6,418,-161
3932718505,-7590,10029,-5004,258,375,-86
3932738494,-7818,9835,-5284,472,247,-33
3932758483,-7915,9947,-5154,709,173,13
3932778472,-7414,10137,-4886,949,156,66
3932798461,-6682,10134,-5178,1163,113,116
3932818450,-6518,9735,-6358,1379,79,158
3932838439,-6253,9377,-6645,1630,-17,189
3932858428,-5583,8988,-6711,1850,-86,200
3932878417,-5151,8392,-8106,2028,-244,175
3932898406,-5173,8153,-7808,2218,-292,130
3932918395,-4854,7473,-8380,2384,-183,83
3932938385,-4307,6575,-9103,2539,-264,-9
3932958374,-3877,5639,-10540,2670,-437,-108
3932978363,-4051,4915,-11394,2813,-215,-212
3932998352,-4673,4448,-10425,2916,126,-326
3933018341,-2709,3150,-9360,3035,-415,-488
3933038330,-4476,842,-12226,3253,-814,-692
3933058319,-5757,-1299,-10970,3472,-407,-860
3933078308,-4754,-2932,-11168,3449,-30,-956
3933098297,-4704,-3527,-16115,3361,-41,-1078
3933118286,-4333,-5319,-12562,3478,-155,-1247
3933138275,-4497,-7749,-11368,3514,-13,-1420
3933158264,-4101,-9540,-11849,3437,316,-1584
3933178253,-4658,-11538,-12942,3401,505,-1667
3933198242,-3540,-13977,-10829,3394,447,-1684
3933218231,-2656,-15722,-10732,3278,340,-1675
3933238220,-3727,-16964,-11454,3210,291,-1673
3933258209,-4486,-17582,-13002,3189,132,-1701
3933278198,-4125,-18903,-13718,3115,62,-1672
3933298187,-3538,-18945,-14124,2900,-43,-1559
3933318176,-5469,-19379,-13924,2595,-138,-1442
3933338165,-5120,-19032,-12996,2310,-180,-1358
3933358154,-6019,-18995,-12277,2069,-278,-1304
3933378143,-6432,-18117,-12494,1868,-278,-1208
3933398132,-6108,-17576,-11956,1612,-274,-1065
3933418121,-6194,-17277,-11807,1364,-249,-874
3933438110,-7815,-16561,-12209,1145,-218,-687
3933458099,-7567,-16043,-12236,909,-123,-516
3933478088,-7712,-15823,-12096,666,-59,-336
3933498077,-8050,-15182,-12185,435,4,-171
3933518066,-7576,-14751,-12011,178,64,-28
3933538055,-7479,-15055,-11875,-58,77,120
3933558044,-7584,-15050,-11898,-275,132,298
3933578033,-7509,-14941,-12106,-516,235,478
3933598022,-7541,-15554,-12124,-783,288,629
3933618011,-7017,-15735,-12610,-1050,384,799
3933638000,-5732,-15509,-13940,-1310,491,996
3933657989,-6616,-15990,-14106,-1597,504,1196
3933677978,-6186,-16396,-13410,-1842,529,1352
3933697967,-5738,-16269,-13148,-2068,441,1436
3933717956,-5424,-15510,-14128,-2307,343,1511
3933737945,-5646,-15286,-13612,-2496,213,1571
3933757934,-5398,-14689,-14036,-2652,32,1619
3933777923,-5578,-13715,-14365,-2820,-114,1669
3933797912,-5380,-13398,-13659,-2961,-317,1687
3933817901,-5755,-12800,-14395,-3103,-556,1690
3933837890,-6088,-12027,-14217,-3255,-602,1711
3933857879,-5606,-11116,-13718,-3357,-566,1714
3933877868,-6482,-9842,-13970,-3395,-592,1686
3933897857,-5830,-8624,-13728,-3379,-569,1646
3933917846,-6173,-7351,-13858,-3342,-421,1612
3933937835,-7317,-6284,-12997,-3287,-424,1540
3933957824,-6595,-4986,-13224,-3246,-437,1443
3933977813,-6121,-3659,-12437,-3237,-430,1334
3933997802,-6308,-2432,-13030,-3276,-247,1253
3934017791,-6174,-1321,-11643,-3198,-122,1149
3934037780,-5230,-360,-11068,-3050,-35,1009
3934057769,-5131,608,-10266,-2884,-7,842
3934077758,-5099,1709,-9531,-2698,-59,683
3934097747,-5710,2791,-9022,-2551,-63,546
3934117736,-4804,4699,-7263,-2357,-6,431
3934137725,-5038,6107,-7387,-2239,265,323
3934157714,-5526,7165,-7657,-2059,409,195
3934177703,-5139,8214,-6827,-1831,494,77
3934197692,-5173,9151,-6581,-1714,497,-14
3934217681,-5898,10021,-6241,-1595,522,-94
3934237670,-6182,10701,-6314,-1420,590,-160
3934257659,-6116,10582,-6622,-1273,647,-205
3934277648,-6773,10542,-6442,-1191,559,-267
3934297637,-7170,10827,-6053,-1083,418,-317
3934317626,-7868,11040,-6023,-945,354,-334
3934337615,-8116,11099,-5407,-746,309,-338
3934357604,-8663,10723,-5349,-561,231,-315
3934377593,-8663,10424,-5187,-353,121,-273
3934397583,-8759,10185,-4850,-115,123,-211
3934417572,-8970,10193,-4431,124,59,-149
3934437561,-8862,10274,-4229,354,2,-83
3934457550,-8486,10201,-4624,574,-136,-31
3934477539,-8758,10316,-4485,834,-100,14
3934497528,-8234,10346,-4580,1089,-24,47
3934517517,-7619,9948,-5279,1321,-10,69
3934537506,-7265,9601,-5652,1569,22,83
3934557495,-6579,8796,-6695,1779,-53,72
3934577484,-6482,8151,-7898,1970,-142,33
3934597473,-6566,7886,-8230,2192,-90,-14
3934617462,-5925,7324,-8585,2373,-17,-71
3934637451,-5761,6308,-10264,2467,-109,-161
3934657440,-5300,5969,-10041,2550,-236,-277
3934677429,-5299,5291,-10627,2546,-371,-416
3934697418,-5995,4323,-12303,2537,-615,-571
3934717407,-5425,3885,-12573,2510,-765,-733
3934737396,-5691,3456,-12975,2387,-1011,-927
3934757385,-7567,2888,-12782,2444,-1089,-1118
3934777374,-7156,1577,-11164,2609,-754,-1258
3934797363,-8008,-557,-10642,2676,-340,-1332
3934817352,-8099,-1791,-12531,2644,-347,-1442
3934837341,-8330,-2776,-10192,2704,-187,-1579
3934857330,-6317,-5770,-7642,2854,502,-1703
3934877319,-7020,-8031,-9348,2918,872,-1737
3934897308,-5831,-7996,-13597,2855,1122,-1710
3934917297,-5818,-10921,-10611,2752,1222,-1744
3934937286,-5548,-14210,-8922,2858,1081,-1725
3934957275,-6436,-13572,-12971,2981,969,-1631
3934977264,-4264,-13323,-13928,3040,1256,-1484
3934997253,-3632,-15541,-11846,2982,1228,-1369
3935017242,-4644,-16183,-11920,2903,1031,-1276
3935037231,-4458,-16179,-13086,2844,944,-1192
3935057220,-4463,-16935,-12115,2732,937,-1104
3935077209,-4776,-17172,-12138,2619,956,-1000
3935097198,-4461,-17035,-12613,2503,1010,-871
3935117187,-4621,-17769,-12439,2296,930,-765
3935137176,-4977,-17830,-11612,2001,835,-682
3935157165,-5382,-17447,-11860,1692,739,-599
3935177154,-4773,-17194,-12162,1438,683,-477
3935197143,-5326,-17219,-11464,1206,648,-325
3935217132,-5496,-16990,-11838,975,624,-199
3935237121,-5834,-16199,-12340,693,547,-114
3935257110,-5163,-15642,-12461,420,502,-31
3935277099,-5120,-15546,-12626,203,439,81
3935297088,-5536,-15081,-13081,-36,379,208
3935317077,-5162,-14894,-13325,-304,312,299
3935337066,-5459,-15044,-13332,-587,233,373
3935357055,-4481,-15306,-13131,-862,208,471
3935377044,-4462,-15475,-13370,-1137,121,561
3935397033,-4559,-15867,-13617,-1425,27,620
3935417022,-3856,-16118,-14087,-1733,-29,678
3935437011,-3837,-16383,-14508,-2037,-81,753
3935457000,-3712,-16572,-14987,-2290,-149,822
3935476989,-3479,-16275,-15594,-2549,-219,876
3935496978,-3855,-15919,-15043,-2803,-279,915
3935516967,-3653,-15356,-14160,-3001,-336,949
3935536956,-3788,-14044,-14166,-3163,-418,1002
3935556945,-3606,-13197,-14325,-3296,-476,1065
3935576934,-3631,-12396,-14679,-3445,-484,1116
3935596923,-4991,-11911,-13824,-3558,-481,1132
3935616912,-5095,-10738,-14964,-3615,-381,1126
3935636901,-4999,-9832,-14284,-3658,-250,1097
3935656890,-5309,-8650,-13919,-3661,-178,1070
3935676879,-5488,-7402,-14755,-3638,-56,1031
3935696868,-5444,-6702,-13865,-3572,-10,964
3935716857,-5197,-5626,-13721,-3501,18,897
3935736846,-4923,-4675,-13487,-3476,-24,822
3935756835,-5089,-2914,-11325,-3386,79,739
3935776824,-4344,-1860,-12750,-3210,332,642
3935796813,-4178,-1370,-12088,-3095,403,520
3935816802,-3728,957,-9519,-3020,719,410
3935836791,-3087,2394,-10744,-2886,1078,264
3935856781,-2854,3563,-10522,-2694,1044,74
3935876770,-2845,4978,-9486,-2451,933,-87
3935896759,-3097,6450,-8988,-2219,910,-199
3935916748,-2559,7567,-9138,-2020,899,-274
3935936737,-2575,8609,-8916,-1828,769,-299
3935956726,-3263,9679,-8048,-1650,724,-287
3935976715,-3323,10203,-7893,-1496,641,-269
3935996704,-4008,10353,-7981,-1385,637,-247
3936016693,-4457,10718,-7282,-1241,614,-242
3936036682,-4780,10799,-7346,-1099,438,-244
3936056671,-4726,10939,-7126,-932,279,-229
3936076660,-4955,10815,-7521,-785,70,-202
3936096649,-5498,11084,-6903,-616,-87,-172
3936116638,-5156,11232,-6408,-442,-107,-132
3936136627,-5208,11173,-6617,-269,-210,-72
3936156616,-5535,11112,-6384,-66,-343,-6
3936176605,-5590,11128,-6276,142,-435,48
3936196594,-5464,11061,-6062,366,-422,99
3936216583,-5300,10918,-5932,603,-394,170
3936236572,-5147,10769,-5864,811,-478,248
3936256561,-5077,10549,-6027,1027,-560,309
3936276550,-4736,9987,-6725,1280,-564,351
3936296539,-4650,9629,-6752,1566,-513,378
3936316528,-4109,9038,-7265,1812,-517,381
3936336517,-3972,8497,-7701,2048,-488,373
3936356506,-3847,7862,-8028,2270,-507,355
3936376495,-3400,6953,-8897,2447,-586,299
3936396484,-2910,5907,-9997,2632,-549,221
3936416473,-2908,4813,-10322,2794,-511,145
3936436462,-3313,4019,-11099,2854,-601,22
3936456451,-3139,2960,-12529,2991,-791,-161
3936476440,-2411,2170,-13061,3148,-920,-366
3936496429,-3701,1555,-14826,3222,-1212,-599
3936516418,-3839,792,-14962,3381,-1404,-793
3936536407,-4665,514,-12426,3427,-1478,-936
3936556396,-5257,-1320,-11810,3298,-1346,-1071
3936576385,-3406,-3220,-10880,3297,-1674,-1216
3936596374,-6717,-6143,-11097,3329,-1301,-1393
3936616363,-7395,-8120,-11113,3343,-397,-1498
3936636352,-4261,-9889,-9665,3330,-207,-1607
3936656341,-5257,-12677,-9156,3338,-61,-1737
3936676330,-6663,-14371,-12703,3346,159,-1772
3936696319,-5955,-15697,-11286,3322,608,-1698
3936716308,-5165,-17491,-10993,3204,540,-1665
3936736297,-5155,-18728,-10950,3070,439,-1623
3936756286,-5735,-19258,-11444,2924,470,-1566
3936776275,-6002,-18779,-12955,2731,553,-1489
3936796264,-5113,-18781,-12490,2522,560,-1417
3936816253,-5031,-18779,-11194,2294,473,-1346
3936836242,-5217,-18248,-11794,2098,436,-1253
3936856231,-5430,-17735,-11658,1908,397,-1167
3936876220,-5796,-16845,-11970,1691,364,-1069
3936896209,-5078,-16299,-11781,1482,391,-949
3936916198,-5220,-16222,-11618,1300,392,-804
3936936187,-5738,-15972,-11689,1130,351,-656
3936956176,-6057,-15829,-11815,908,294,-543
3936976165,-5948,-15921,-11661,637,311,-424
3936996154,-5807,-16229,-11540,361,312,-277
3937016143,-5946,-16403,-11675,90,290,-117
3937036132,-6128,-16475,-11497,-182,269,36
3937056121,-5942,-16444,-11891,-457,276,179
3937076110,-6197,-16500,-11702,-733,301,315
3937096099,-5786,-16558,-12146,-1000,274,436
3937116088,-5517,-16555,-12260,-1243,205,560
3937136077,-5199,-16791,-12544,-1460,137,685
3937156066,-5242,-17366,-12403,-1680,50,787
3937176055,-5022,-17576,-13201,-1918,-98,865
3937196044,-4673,-17686,-14660,-2147,-86,974
3937216033,-4282,-17980,-14331,-2379,-40,1058
3937236022,-3917,-17702,-13977,-2641,-179,1103
3937256011,-3711,-16482,-14814,-2906,-327,1135
3937276000,-3827,-15875,-14787,-3127,-461,1176
3937295989,-4102,-15132,-14340,-3300,-580,1245
3937315979,-4381,-13597,-14472,-3445,-650,1302
3937335968,-3868,-12611,-14354,-3553,-666,1342
3937355957,-4019,-11208,-14761,-3691,-753,1360
3937375946,-5303,-10268,-14726,-3818,-774,1363
3937395935,-5050,-9308,-13887,-3858,-791,1372
3937415924,-5446,-7949,-13982,-3898,-706,1353
3937435913,-5537,-7052,-14260,-3935,-577,1294
3937455902,-5370,-6028,-13490,-3965,-544,1211
3937475891,-5266,-4976,-13198,-3945,-496,1131
3937495880,-5262,-3878,-12976,-3903,-309,1062
3937515869,-5240,-2583,-10607,-3798,-212,969
3937535858,-4902,-1082,-10046,-3653,-74,871
3937555847,-5104,-67,-10424,-3515,144,763
3937575836,-5318,1071,-7847,-3310,175,636
3937595825,-5339,2669,-7293,-3093,276,529
3937615814,-5700,4073,-7390,-2839,431,400
3937635803,-5536,5553,-6372,-2580,542,241
3937655792,-6007,6845,-5964,-2359,789,105
3937675781,-5547,8249,-5685,-2144,872,-22
3937695770,-5377,9689,-5266,-1928,872,-97
3937715759,-5492,10648,-5352,-1705,798,-137
3937735748,-6246,11459,-4750,-1438,764,-137
3937755737,-6666,11967,-3909,-1161,476,-133
3937775726,-6566,12287,-3691,-921,182,-122
3937795715,-7136,12221,-3782,-671,54,-85
3937815704,-7220,12188,-3342,-354,-122,-31
3937835693,-7257,12038,-2812,-49,-251,20
3937855682,-7328,11617,-3014,221,-338,59
3937875671,-7177,11139,-3526,465,-481,96
3937895660,-6921,10808,-3977,678,-568,129
3937915649,-6793,10902,-3778,877,-577,154
3937935638,-6608,11047,-3829,1075,-554,177
3937955627,-6192,10821,-4635,1278,-560,183
3937975616,-5890,10256,-5522,1498,-507,154
3937995605,-5941,9622,-6011,1706,-462,91
3938015594,-5569,9537,-5604,1895,-467,-10
3938035583,-5612,8922,-6186,2088,-334,-102
3938055572,-3984,8147,-6876,2292,-249,-187
3938075561,-5071,7034,-8185,2435,-297,-306
3938095550,-5263,6118,-8860,2622,-365,-469
3938115539,-4581,5379,-8723,2806,-220,-628
3938135528,-4186,4453,-8402,2936,-144,-789
3938155517,-4867,2931,-10531,3054,-199,-961
3938175506,-5298,1976,-11458,3226,-139,-1117
3938195495,-4583,979,-8845,3377,-371,-1255
3938215484,-4414,-947,-8858,3468,-672,-1424
3938235473,-5748,-3267,-11474,3567,-537,-1595
3938255462,-7685,-4449,-14663,3543,-339,-1701
3938275451,-4907,-5343,-9916,3527,-272,-1810
3938295440,-5782,-9863,-7234,3610,-237,-2000
3938315429,-6987,-11843,-11091,3578,-5,-2114
3938335418,-6080,-14158,-8686,3579,284,-2151
3938355407,-5176,-18001,-6539,3667,444,-2092
3938375396,-6372,-19888,-8752,3750,397,-1948
3938395385,-7127,-20611,-11906,3696,407,-1830
3938415374,-6327,-21111,-13918,3489,510,-1762
3938435363,-6812,-22803,-13474,3227,531,-1672
3938455352,-6826,-22538,-14184,2962,543,-1496
3938475341,-6348,-21439,-13948,2647,564,-1336
3938495330,-6270,-19905,-14236,2263,478,-1250
3938515319,-7291,-18262,-13466,1901,453,-1177
3938535308,-6605,-16826,-12842,1625,541,-1083
3938555297,-6478,-15120,-13281,1415,590,-955
3938575286,-6391,-14121,-14003,1234,588,-817
3938595275,-6585,-13943,-13990,1032,588,-670
3938615264,-6751,-14018,-13546,796,592,-510
3938635253,-6394,-14347,-13001,531,628,-330
3938655242,-6174,-14778,-12496,272,630,-139
3938675231,-6342,-15189,-11994,7,607,32
3938695220,-6071,-15700,-11361,-284,566,157
3938715209,-5769,-16229,-10717,-571,501,263
3938735198,-5309,-16027,-11508,-821,466,388
3938755187,-4868,-16298,-11719,-1045,392,513
3938775177,-5150,-16927,-11706,-1269,293,622
3938795166,-5378,-17332,-11937,-1472,236,722
3938815155,-4764,-17302,-12765,-1671,197,803
3938835144,-5126,-18042,-12426,-1912,137,864
3938855133,-5808,-18390,-12381,-2173,-30,902
3938875122,-4442,-18343,-12401,-2427,-187,943
3938895111,-5189,-17952,-12448,-2646,-439,1016
3938915100,-5087,-16479,-13804,-2828,-643,1130
3938935089,-5305,-15606,-14285,-2987,-770,1238
3938955078,-5882,-14178,-15345,-3168,-788,1344
3938975067,-5739,-12833,-15498,-3330,-801,1415
3938995056,-6181,-11554,-15504,-3465,-841,1460
3939015045,-6059,-10624,-15149,-3573,-826,1507
3939035034,-5750,-9601,-15855,-3654,-745,1571
3939055023,-6032,-8736,-14372,-3693,-756,1607
3939075012,-6267,-7627,-15125,-3713,-768,1609
3939095001,-6535,-6666,-13775,-3761,-770,1591
3939114990,-6507,-5447,-13118,-3743,-776,1565
3939134979,-6601,-4490,-13820,-3739,-630,1528
3939154968,-6540,-3346,-12081,-3726,-553,1448
3939174957,-6238,-2128,-11004,-3662,-432,1347
3939194946,-6291,-731,-8797,-3516,-393,1220
3939214935,-6735,374,-9556,-3350,-190,1101
3939234924,-5946,1459,-8797,-3161,-76,953
3939254913,-6158,2918,-6915,-2935,-49,829
3939274902,-6188,4318,-5787,-2682,149,727
3939294891,-5328,5701,-5845,-2445,334,628
3939314880,-4768,6869,-6198,-2228,335,519
3939334869,-5525,8295,-4600,-1994,248,423
3939354858,-5840,9496,-4073,-1770,263,340
3939374847,-4999,9929,-5276,-1608,348,231
3939394836,-6141,10741,-4404,-1468,399,96
3939414825,-5937,11960,-4419,-1334,557,4
3939434814,-5510,12071,-5309,-1207,667,-60
3939454803,-6626,12015,-4729,-1063,771,-100
3939474792,-6442,11847,-3916,-933,523,-143
3939494781,-6393,11847,-2838,-757,222,-194
3939514770,-7783,12531,-3275,-481,473,-189
3939534759,-7573,12370,-3891,-229,361,-159
3939554748,-7703,11838,-3675,-38,21,-129
3939574737,-9042,11947,-3172,160,-24,-75
3939594726,-9068,12129,-2470,410,-119,-15
3939614715,-7977,11867,-2736,625,-234,36
3939634704,-7695,11554,-3019,807,-224,64
3939654693,-8105,11369,-3028,998,-249,63
3939674682,-8123,11086,-3461,1230,-292,56
3939694671,-7245,10676,-3727,1494,-233,57
3939714660,-5832,9931,-4983,1704,-248,36
3939734649,-6184,9583,-5236,1918,-315,3
3939754638,-5671,9149,-5877,2134,-336,-52
3939774627,-5624,8608,-6677,2347,-277,-133
3939794616,-5100,8589,-5877,2566,-228,-243
3939814605,-4212,7452,-7433,2710,-232,-382
3939834594,-3554,5713,-9652,2765,-255,-559
3939854583,-4558,5943,-9956,2773,-390,-769
3939874572,-5159,5659,-9965,2877,-412,-1005
3939894561,-5017,4207,-10858,3094,-575,-1226
3939914550,-5458,2076,-10930,3260,-458,-1388
3939934539,-7013,714,-10429,3293,-583,-1514
3939954528,-5596,-963,-7544,3354,-997,-1685
3939974517,-7126,-4210,-7219,3472,-646,-1879
3939994506,-7676,-6385,-11344,3472,31,-1978
3940014495,-7998,-8085,-12298,3372,295,-2076
3940034484,-7641,-10244,-8664,3310,613,-2168
3940054473,-5114,-14156,-7616,3428,803,-2193
3940074462,-5903,-15692,-12584,3445,736,-2084
3940094451,-8422,-16147,-12847,3347,663,-1959
3940114440,-7118,-16826,-12729,3269,863,-1842
3940134429,-5323,-17330,-13708,3194,950,-1766
3940154418,-6054,-18849,-14175,3093,856,-1673
3940174407,-6915,-19078,-14115,2899,834,-1506
3940194396,-6629,-18647,-13497,2637,870,-1362
3940214385,-6738,-17800,-12542,2422,866,-1271
3940234375,-6716,-17044,-12579,2261,840,-1210
3940254364,-5953,-16280,-13119,2097,893,-1093
3940274353,-5310,-15808,-13067,1930,925,-923
3940294342,-5654,-15471,-13187,1778,888,-749
3940314331,-6141,-15541,-12640,1621,893,-586
3940334320,-6102,-16001,-11987,1448,792,-473
3940354309,-6235,-16178,-11362,1176,713,-374
3940374298,-5435,-16325,-11444,882,666,-266
3940394287,-5369,-16712,-11398,576,580,-152
3940414276,-5232,-17122,-11104,257,555,-23
3940434265,-4976,-17144,-11297,-49,494,99
3940454254,-5357,-17046,-11274,-358,376,192
3940474243,-4698,-16477,-11997,-665,297,284
3940494232,-4580,-16493,-11948,-935,241,393
3940514221,-4874,-16862,-12589,-1179,170,507
3940534210,-4894,-16637,-13819,-1449,87,621
3940554199,-4385,-16903,-14103,-1751,-23,691
3940574188,-4540,-17250,-14477,-2082,-195,752
3940594177,-4112,-17122,-14442,-2364,-324,841
3940614166,-4243,-16644,-14146,-2591,-493,928
3940634155,-4651,-16018,-13904,-2785,-679,1019
3940654144,-4819,-15301,-14335,-2982,-790,1115
3940674133,-5115,-14187,-14995,-3166,-805,1214
3940694122,-5345,-13604,-14858,-3314,-801,1290
3940714111,-5824,-12742,-14562,-3433,-827,1350
3940734100,-6172,-11847,-14333,-3520,-827,1398
3940754089,-6015,-11008,-14807,-3580,-774,1430
3940774078,-6394,-10367,-14279,-3600,-734,1455
3940794067,-6047,-9481,-13943,-3592,-770,1476
3940814056,-6478,-8499,-13823,-3576,-736,1490
3940834045,-6220,-7516,-13887,-3580,-575,1478
3940854034,-6630,-6362,-13289,-3610,-489,1428
3940874023,-6593,-5078,-12175,-3570,-444,1355
3940894012,-5870,-3606,-10766,-3461,-367,1268
3940914001,-5815,-2689,-11464,-3408,-217,1195
3940933990,-5695,-1105,-9653,-3321,16,1104
3940953979,-5308,121,-9201,-3155,181,1009
3940973968,-4835,895,-9157,-2969,233,883
3940993957,-5001,2331,-7583,-2755,238,737
3941013946,-4882,3698,-7997,-2572,369,581
3941033935,-5252,5088,-7390,-2358,327,374
3941053924,-4566,6663,-6471,-2109,82,180
3941073913,-4946,7694,-6732,-1908,139,41
3941093902,-4432,8843,-6755,-1712,72,-83
3941113891,-5494,9747,-6774,-1601,-228,-197
3941133880,-6167,10989,-6041,-1447,-299,-252
3941153869,-6724,11980,-5888,-1288,-88,-250
3941173858,-6914,12495,-5389,-1145,105,-238
3941193847,-6757,12085,-5781,-1087,282,-225
3941213836,-7833,11782,-5862,-1089,222,-236
3941233825,-8704,12095,-5191,-1040,136,-265
3941253814,-8211,12112,-5493,-979,174,-303
3941273803,-8175,12023,-5870,-938,137,-332
3941293792,-9087,12031,-5408,-833,146,-335
3941313781,-8949,11576,-5090,-684,48,-333
3941333770,-9057,11252,-4398,-540,-92,-318
3941353759,-8861,11017,-3681,-371,-94,-253
3941373748,-10024,11052,-3627,-190,-124,-167
3941393737,-10351,11084,-2732,61,-149,-100
3941413726,-9496,10802,-2706,287,-81,-29
3941433715,-9830,10920,-3043,499,-95,41
3941453704,-9536,11271,-2783,759,-64,103
3941473693,-9051,11141,-3388,981,-61,141
3941493682,-9099,10927,-4150,1206,-225,157
3941513671,-8578,11024,-3965,1474,-292,176
3941533660,-8037,10809,-4169,1712,-193,205
3941553649,-7909,10305,-4634,1914,-132,225
3941573638,-7029,9662,-5327,2061,-223,205
3941593627,-6776,8909,-6652,2182,-341,137
3941613616,-6776,8180,-7591,2360,-352,38
3941633605,-6116,7899,-7346,2535,-284,-87
3941653594,-5415,6687,-8692,2599,-278,-259
3941673583,-5373,5723,-9809,2646,-427,-453
3941693572,-5156,5300,-10205,2683,-583,-661
3941713562,-5610,4696,-12190,2656,-801,-918
3941733551,-5884,4524,-12428,2559,-1483,-1239
3941753540,-6479,4435,-11725,2544,-1571,-1509
3941773529,-8807,2421,-10733,2598,-936,-1655
3941793518,-9032,185,-13518,2482,-1201,-1766
3941813507,-7939,287,-10488,2440,-1012,-1890
3941833496,-9146,-1867,-5423,2479,-431,-2036
3941853485,-8520,-5732,-6398,2610,193,-2196
3941873474,-9217,-7135,-9721,2666,458,-2271
3941893463,-9112,-9293,-7579,2665,448,-2326
3941913452,-8046,-12272,-5985,2672,707,-2328
3941933441,-8961,-12331,-10505,2701,890,-2267
3941953430,-6672,-12274,-14073,2698,1007,-2218
3941973419,-8494,-14486,-11869,2688,718,-2219
3941993408,-8746,-15915,-11796,2715,829,-2101
3942013397,-7156,-15803,-13306,2701,975,-1918
3942033386,-8586,-15536,-11908,2582,839,-1798
3942053375,-8145,-15682,-11686,2484,807,-1700
3942073364,-6910,-16141,-11982,2379,783,-1573
3942093353,-7984,-16619,-11283,2214,651,-1425
3942113342,-8026,-16701,-11531,2029,713,-1261
3942133331,-8217,-16515,-11395,1864,757,-1108
3942153320,-7612,-16543,-11739,1676,766,-960
3942173309,-7712,-16484,-11273,1429,671,-816
3942193298,-8268,-16838,-10369,1161,589,-690
3942213287,-7944,-16638,-10630,900,658,-550
3942233276,-7569,-16373,-11081,649,703,-392
3942253265,-7558,-16171,-11236,415,705,-228
3942273254,-7488,-15687,-11882,198,763,-56
3942293243,-6760,-15292,-12280,-7,847,120
3942313232,-7122,-15099,-12479,-216,813,274
3942333221,-7248,-14815,-12584,-463,771,386
3942353210,-6312,-14733,-12487,-713,778,485
3942373199,-5564,-14930,-12544,-922,756,613
3942393188,-6300,-15008,-12982,-1141,685,739
3942413177,-5931,-15243,-12978,-1401,637,833
3942433166,-5493,-15702,-13212,-1670,547,887
3942453155,-4948,-15446,-14266,-1935,427,933
3942473144,-5337,-15451,-14323,-2175,320,998
3942493133,-5086,-15175,-14831,-2381,191,1058
3942513122,-5424,-14795,-14418,-2593,-51,1080
3942533111,-5208,-14184,-14640,-2791,-238,1093
3942553100,-4932,-13820,-14714,-2940,-339,1124
3942573089,-5104,-13265,-14858,-3057,-443,1158
3942593078,-5570,-12654,-14599,-3156,-498,1176
3942613067,-5732,-11907,-13498,-3234,-397,1186
3942633056,-5621,-10562,-14939,-3303,-401,1158
3942653045,-5404,-9845,-15271,-3355,-482,1112
3942673034,-5520,-8944,-13884,-3384,-437,1089
3942693023,-5641,-7545,-13982,-3374,-372,1064
3942713012,-5684,-6497,-13933,-3359,-431,1013
3942733001,-5139,-5194,-13909,-3359,-426,970
3942752990,-5659,-4105,-12778,-3343,-313,930
3942772979,-5769,-2971,-11797,-3258,-312,878
3942792968,-6048,-1734,-12068,-3201,-216,817
3942812957,-5981,-401,-10429,-3111,-200,744
3942832946,-5621,1458,-10303,-2985,-129,674
3942852935,-6028,2419,-9547,-2851,50,572
3942872924,-5363,3381,-8469,-2654,-31,449
3942892913,-5562,4302,-8151,-2489,-111,349
3942912902,-5564,5349,-8632,-2320,90,289
3942932891,-5553,6244,-7853,-2139,105,193
3942952880,-6326,7249,-5779,-1939,-5,105
3942972869,-5304,7993,-7027,-1774,84,53
3942992858,-5436,8387,-8472,-1751,189,-20
3943012847,-6294,9865,-6557,-1661,125,-101
3943032836,-5904,10985,-6652,-1509,185,-140
3943052825,-6163,11374,-7353,-1431,327,-191
3943072814,-6424,11505,-7480,-1388,311,-248
3943092803,-7384,11915,-6243,-1307,294,-292
3943112792,-7767,12148,-5970,-1204,264,-330
3943132781,-7981,12283,-5870,-1076,256,-345
3943152770,-8692,12433,-4662,-916,208,-328
3943172760,-8921,12275,-4017,-724,87,-280
3943192749,-9414,11655,-4237,-554,-14,-211
3943212738,-10443,11393,-3354,-343,-26,-107
3943232727,-10087,11325,-2910,-101,-14,6
3943252716,-9937,10835,-3586,121,16,117
3943272705,-10205,10773,-3559,356,-35,226
3943292694,-9816,10793,-3453,585,-158,307
3943312683,-9255,10743,-3451,811,-194,381
3943332672,-8088,10983,-3544,1017,-183,451
3943352661,-7303,11200,-4008,1218,-195,504
3943372650,-6530,10934,-5280,1422,-241,515
3943392639,-5964,10444,-6103,1628,-284,491
3943412628,-5486,10272,-5958,1844,-292,446
3943432617,-4877,9934,-6050,2035,-234,386
3943452606,-4062,9225,-7274,2142,-223,278
3943472595,-4705,9112,-7799,2248,-194,153
3943492584,-4335,8798,-7666,2385,-118,43
3943512573,-4028,8244,-7329,2526,-144,-60
3943532562,-4369,6893,-9210,2650,-170,-189
3943552551,-5106,5546,-10305,2793,-136,-326
3943572540,-4653,4493,-8873,2945,-47,-456
3943592529,-4180,2991,-9561,3006,-11,-593
3943612518,-4573,1583,-10314,3111,-227,-772
3943632507,-5476,-70,-11546,3270,-231,-946
3943652496,-5122,-1648,-11176,3363,158,-1063
3943672485,-4660,-3338,-10675,3434,217,-1149
3943692474,-4172,-5229,-11912,3528,49,-1232
3943712463,-5229,-7125,-13191,3541,82,-1336
3943732452,-5774,-8618,-12609,3563,84,-1383
3943752441,-5018,-10420,-11686,3568,104,-1401
3943772430,-5088,-11567,-14713,3526,217,-1395
3943792419,-5237,-12841,-13120,3488,272,-1350
3943812408,-5226,-14292,-12002,3457,269,-1290
3943832397,-5520,-15654,-12529,3441,232,-1242
3943852386,-6270,-16482,-13523,3362,302,-1186
3943872375,-6334,-17281,-12731,3227,352,-1145
3943892364,-5968,-17471,-11967,3058,284,-1130
3943912353,-5326,-18448,-11275,2898,232,-1139
3943932342,-5871,-19145,-11398,2698,128,-1127
3943952331,-6878,-18572,-13402,2416,181,-1062
3943972320,-6572,-18383,-12261,2129,332,-989
3943992309,-5810,-18675,-11400,1840,332,-925
3944012298,-6214,-17849,-12371,1530,306,-814
3944032287,-6633,-16813,-13071,1245,283,-706
3944052276,-6532,-15915,-13067,976,320,-586
3944072265,-6009,-15050,-13015,737,366,-442
3944092254,-5880,-14351,-13193,536,346,-311
3944112243,-6035,-14035,-12926,320,280,-208
3944132232,-6219,-13814,-13218,71,212,-117
3944152221,-5675,-14252,-12540,-189,203,9
3944172210,-5259,-15139,-11440,-416,162,157
3944192199,-5533,-15501,-11551,-644,79,285
3944212188,-5318,-15882,-11616,-886,2,374
3944232177,-5186,-16301,-11580,-1123,-114,443
3944252166,-5120,-16814,-11829,-1354,-170,533
3944272155,-5141,-17204,-12320,-1567,-173,638
3944292144,-4871,-17676,-12369,-1796,-199,729
3944312133,-4565,-18041,-12398,-2062,-290,811
3944332122,-4451,-17797,-13181,-2338,-409,874
3944352111,-5402,-17663,-12428,-2575,-525,927
3944372100,-5498,-16942,-12080,-2726,-654,1001
3944392089,-5599,-15126,-13762,-2860,-731,1099
3944412078,-5569,-13761,-14236,-2995,-723,1164
3944432067,-5722,-12658,-13770,-3094,-750,1214
3944452056,-6133,-11075,-15222,-3186,-756,1266
3944472045,-6221,-10130,-14414,-3257,-812,1294
3944492034,-6300,-9058,-14479,-3338,-694,1339
3944512023,-6578,-8111,-13429,-3365,-554,1372
3944532012,-6536,-7415,-13683,-3341,-571,1396
3944552001,-6539,-6546,-13547,-3347,-517,1411
3944571990,-6900,-5818,-11894,-3310,-546,1387
3944591979,-7398,-4799,-12083,-3260,-535,1340
3944611968,-7236,-4021,-12420,-3264,-460,1287
3944631958,-7091,-2886,-11379,-3225,-278,1228
3944651947,-6721,-1871,-10865,-3097,-175,1148
3944671936,-6763,-965,-10360,-2915,-272,1048
3944691925,-6251,17,-9826,-2780,-251,947
3944711914,-6575,1334,-9283,-2660,-42,855
3944731903,-5963,2792,-8338,-2473,3,719
3944751892,-5386,3858,-8678,-2321,-43,556
3944771881,-5994,4978,-7922,-2131,-134,421
3944791870,-5735,6221,-7099,-1928,-158,334
3944811859,-5669,7213,-7043,-1787,-21,267
3944831848,-6115,8380,-7133,-1664,233,223
3944851837,-5963,9587,-6687,-1536,451,181
3944871826,-6506,10477,-6666,-1453,683,159
3944891815,-6517,10980,-6913,-1392,873,111
3944911804,-6505,11218,-7029,-1343,929,24
3944931793,-6785,11517,-7134,-1287,880,-62
3944951782,-7196,11788,-6729,-1192,908,-136
3944971771,-7416,11838,-6670,-1098,846,-211
3944991760,-7383,11832,-6471,-983,734,-267
3945011749,-7780,11422,-6007,-833,630,-281
3945031738,-8457,11374,-5102,-660,453,-275
3945051727,-8361,11089,-4716,-480,278,-272
3945071716,-9121,10935,-4230,-284,142,-247
3945091705,-9603,11042,-3479,-55,-8,-216
3945111694,-8953,11115,-2995,191,-13,-156
3945131683,-8493,10843,-3494,437,-34,-66
3945151672,-8653,10837,-3305,721,-52,40
3945171661,-8567,10868,-3369,1006,-187,124
3945191650,-8052,10729,-3706,1335,-252,193
3945211639,-6695,10004,-4743,1655,-217,254
3945231628,-6444,9412,-5498,1910,-252,283
3945251617,-6787,8996,-6071,2129,-320,272
3945271606,-6244,8572,-7052,2330,-366,218
3945291595,-4345,7828,-8059,2458,-451,127
3945311584,-5007,7550,-8983,2514,-715,-13
3945331573,-5444,7092,-9966,2608,-762,-204
3945351562,-5595,6568,-10759,2722,-558,-385
3945371551,-4688,5595,-12688,2817,-323,-566
3945391540,-3873,5047,-10836,2918,-746,-773
3945411529,-6087,3632,-10967,2977,-1188,-984
3945431518,-7422,1501,-14488,2981,-681,-1120
3945451507,-7196,839,-12377,2909,-677,-1256
3945471496,-6825,28,-10021,2839,-716,-1427
3945491485,-5834,-2896,-6349,2982,-299,-1680
3945511474,-7309,-6091,-8837,3058,22,-1849
3945531463,-7972,-7316,-12149,3024,446,-1916
3945551452,-6769,-8774,-9461,2973,807,-1946
3945571441,-4777,-12573,-7807,3027,711,-1942
3945591430,-5445,-14656,-10232,3097,632,-1875
3945611419,-6596,-14080,-13489,3041,826,-1775
3945631408,-6545,-14527,-13484,2969,1029,-1693
3945651397,-5312,-15347,-14399,2913,1076,-1612
3945671386,-4108,-15399,-15384,2834,923,-1522
3945691375,-5501,-15730,-14085,2699,679,-1449
3945711364,-5618,-15848,-13152,2544,685,-1367
3945731353,-6163,-15956,-12403,2406,702,-1285
3945751342,-5822,-15718,-12537,2274,744,-1173
3945771331,-5555,-15572,-12425,2158,753,-1043
3945791320,-5555,-15572,-12425,1998,766,-896
3945811309,-5978,-15993,-12796,1998,766,-896
3945831298,-6432,-16324,-13009,1806,726,-737
3945851287,-6937,-16672,-12650,1547,686,-603
3945871276,-6138,-17129,-12725,1258,668,-486
3945891265,-6343,-17365,-12700,962,533,-368
3945911254,-6906,-17228,-12965,655,480,-243
3945931243,-6739,-16659,-12994,347,445,-128
3945951232,-6507,-16205,-13106,38,392,-17
3945971221,-6048,-15510,-13260,-242,381,135
3945991210,-6181,-15168,-13415,-471,358,298
3946011199,-5909,-14960,-13652,-707,279,436
3946031188,-5975,-15280,-13656,-968,162,527
3946051177,-5468,-15234,-14121,-1252,28,587
3946071166,-5425,-15435,-14125,-1558,-96,667
3946091156,-5022,-15866,-13977,-1811,-147,752
3946111145,-4689,-15888,-14284,-2041,-205,838
3946131134,-4212,-15710,-15020,-2286,-287,906
3946151123,-4427,-15673,-14816,-2515,-321,965
3946171112,-4254,-15146,-14344,-2687,-361,1017
3946191101,-4234,-14053,-14776,-2835,-459,1052
3946211090,-4003,-13175,-14959,-2974,-546,1079
3946231079,-4573,-12580,-13875,-3066,-671,1113
3946251068,-4383,-11404,-14472,-3157,-820,1164
3946271057,-4865,-10322,-14267,-3248,-963,1199
3946291046,-4988,-9540,-13947,-3302,-1035,1233
3946311035,-5166,-8516,-13759,-3340,-1041,1265
