Timestamp(us), ax, ay, az, gx, gy, gz, mx, my, mz,period
3531778869,-717,-876,-15702,-470,650,254,65,225,-1817,0
3531798858,-1422,-679,-16033,-606,450,560,65,237,-1842,0
3531818847,-742,-196,-15800,-574,570,873,53,243,-1817,0
3531838836,-536,-174,-15713,-413,578,1233,53,249,-1805,0
3531858825,-1060,-904,-16255,-261,518,1379,35,261,-1842,0
3531878814,-895,-657,-17367,-160,618,1196,5,243,-1792,0
3531898803,-499,-207,-18316,-327,552,906,17,219,-1805,0
3531918792,-935,297,-17528,-681,224,660,5,231,-1780,0
3531938781,385,501,-15493,-995,-132,510,0,261,-1769,0
3531958770,947,1120,-14843,-836,92,368,0,255,-1769,0
3531978759,1250,1672,-15683,-462,521,501,-6,261,-1769,0
3531998748,1515,2113,-16140,-187,1047,830,-30,255,-1744,0
3532018737,1798,1329,-16957,128,1547,1085,-42,243,-1730,0
3532038726,321,-6,-16729,519,1702,987,-72,243,-1719,0
3532058715,1007,-61,-15409,596,1431,542,-101,225,-1707,0
3532078704,3307,723,-15052,188,1004,341,-96,213,-1719,0
3532098693,4006,1078,-15126,-186,686,424,-119,225,-1671,0
3532118682,3946,1170,-14170,-333,279,496,-113,213,-1646,0
3532138671,3045,1377,-13880,-274,115,527,-119,231,-1671,0
3532158660,1727,1329,-14901,-77,188,654,-131,184,-1657,0
3532178649,1944,933,-15511,140,379,723,-125,201,-1646,0
3532198638,8657,-104,-14214,200,537,853,-137,184,-1657,0
3532218627,6503,8,-15647,-11,896,1004,-155,201,-1634,0
3532238616,-518,704,-16386,434,1238,740,-161,172,-1657,0
3532258605,4798,-234,-15341,1262,415,352,-179,172,-1646,0
3532278594,3641,-203,-14893,1240,-315,598,-185,160,-1671,0
3532298583,4659,39,-14700,686,61,707,-173,136,-1621,0
3532318572,2870,-81,-14487,119,279,844,-179,130,-1659,0
3532338562,4366,-5893,-13621,227,490,569,-185,124,-1596,0
3532358551,5448,-576,-17006,-52,232,-788,-185,112,-1646,0
3532378540,5772,-828,-15079,-384,289,-29,-191,118,-1657,0
3532398529,5736,-2278,-13351,117,273,513,-191,124,-1621,0
3532418518,4699,-1803,-13140,729,212,374,-196,106,-1634,0
3532438507,3173,-1428,-15745,993,629,372,-208,100,-1609,0
3532458496,3192,-1322,-16141,977,598,384,-208,95,-1632,0
3532478485,3579,-1683,-15350,401,-156,485,-214,77,-1657,0
3532498474,4516,-1251,-16176,-496,-312,510,-202,71,-1671,0
3532518463,3077,-1701,-16312,-1080,631,488,-202,95,-1609,0
3532538452,3380,-774,-15106,-866,1293,291,-214,83,-1621,0
3532558441,6023,233,-14565,-675,1300,376,-232,95,-1559,0
3532578430,5957,-1182,-15651,-1023,610,748,-238,100,-1609,0
3532598419,4730,-2107,-15918,-1356,326,897,-256,95,-1534,0
3532618408,5679,-2103,-15169,-1270,420,798,-250,89,-1534,0
3532638397,6210,-1567,-14955,-646,537,105,-238,89,-1486,0
3532658386,6701,-548,-13611,-1111,659,-472,-256,112,-1486,0
3532678375,6316,3370,-11082,-250,601,-274,-244,112,-1486,0
3532698364,7127,733,-14147,539,-317,-1070,-262,124,-1461,0
3532718353,7574,312,-13429,62,-449,-1271,-268,142,-1473,0
3532738342,9792,-2,-14819,-496,-96,-621,-250,136,-1486,0
3532758331,4771,-428,-14712,-517,-131,322,-256,142,-1511,0
3532778320,4921,338,-13246,-404,-84,95,-256,148,-1486,0
3532798309,4946,1771,-11992,-711,246,-293,-244,124,-1498,0
3532818298,3192,2466,-14364,-1563,591,-1186,-256,160,-1461,0
3532838287,10633,1762,-15251,-1534,339,-2160,-226,190,-1411,0
3532858276,12389,2031,-14511,-1069,523,-989,-232,207,-1386,0
3532878265,6238,3080,-15649,-613,622,61,-244,207,-1375,0
3532898254,7742,3324,-13500,-287,-133,-255,-232,231,-1375,0
3532918243,7086,2809,-14195,-431,-519,-220,-238,237,-1400,0
3532938232,6487,3216,-15196,-338,-553,-220,-244,231,-1400,0
3532958221,6145,3313,-15020,45,-780,-180,-226,249,-1400,0
3532978210,4874,2999,-14517,418,-1094,-61,-226,237,-1436,0
3532998199,4281,2818,-14201,641,-1265,-272,-208,249,-1473,0
3533018188,5216,3487,-13292,576,-1283,-539,-196,231,-1486,0
3533038177,5594,3710,-13519,254,-829,-587,-179,225,-1486,0
3533058166,5252,4111,-15178,111,-170,-448,-185,261,-1511,0
3533078155,4367,3654,-15226,154,-218,-322,-191,237,-1523,0
3533098144,4652,2756,-15104,54,-322,-439,-185,237,-1523,0
3533118133,4694,2217,-15937,-102,-310,-543,-161,237,-1548,0
3533138122,4103,3044,-16044,-188,-496,-582,-155,261,-1548,0
3533158111,3777,4152,-14527,-39,-783,-533,-143,279,-1523,0
3533178100,2960,4799,-13709,-166,-715,-457,-137,261,-1559,0
3533198089,3201,4697,-14476,-529,-280,-526,-137,285,-1559,0
3533218078,3981,4077,-15005,-691,86,-402,-137,273,-1534,0
3533238067,3981,4077,-15005,-596,-45,-21,-143,314,-1559,0
3533258056,4168,3424,-15258,-596,-45,-21,-143,308,-1548,0
3533278045,4258,4021,-15490,-455,-640,458,-143,308,-1548,0
3533298034,4255,5065,-15650,-301,-733,656,-137,285,-1571,0
3533318023,3255,5002,-15110,-234,-547,320,-125,279,-1548,0
3533338012,1730,3332,-14386,-359,-310,516,-125,285,-1559,0
3533358001,2047,3777,-14970,-530,-197,554,-119,285,-1559,0
3533377990,2503,5305,-16115,-370,-36,258,-137,302,-1523,0
3533397979,2764,5370,-15116,-324,46,172,-125,285,-1511,0
3533417968,3018,4946,-14848,-266,260,166,-149,308,-1548,0
3533437957,3111,4630,-15078,-63,283,115,-143,296,-1534,0
3533457946,3438,4742,-14735,-5,133,15,-143,296,-1536,0
3533477935,3284,4896,-14656,-20,40,22,-149,296,-1548,0
3533497924,3162,4966,-14840,13,-64,13,-137,279,-1523,0
3533517913,3052,4835,-14710,125,-121,-30,-143,285,-1509,0
3533537902,2870,4629,-14882,226,-109,-93,-125,290,-1559,0
3533557891,2930,4566,-15025,326,-155,-128,-125,285,-1548,0
3533577880,2752,4457,-15195,352,-168,-113,-131,285,-1534,0
3533597869,2782,4482,-14975,335,-133,-74,-131,279,-1571,0
3533617858,2675,4562,-15011,238,-76,16,-131,290,-1559,0
3533637847,2765,4565,-15280,164,-85,80,-119,285,-1534,0
3533657836,2556,4324,-15075,167,-115,70,-137,290,-1573,0
3533677825,2822,4040,-14992,156,-59,-32,-107,279,-1548,0
3533697814,2819,4333,-15036,190,-97,-9,-131,279,-1598,0
3533717803,2657,4571,-15158,155,-61,11,-131,273,-1559,0
3533737792,2313,3939,-15025,119,41,-23,-131,302,-1559,0
3533757781,2250,4050,-15133,125,115,59,-137,273,-1609,0
3533777770,2510,4252,-15319,73,87,75,-107,285,-1573,0
3533797760,2768,4048,-14882,2,37,25,-143,279,-1573,0
3533817749,3057,4053,-14823,-18,72,-21,-131,273,-1573,0
3533837738,2517,3775,-15271,104,97,-74,-143,267,-1573,0
3533857727,2650,3632,-15266,259,49,-120,-137,285,-1548,0
3533877716,3487,3847,-15073,276,-30,-71,-143,296,-1561,0
3533897705,2858,3462,-15168,177,-31,56,-131,285,-1584,0
3533917694,2585,3344,-15352,149,-77,85,-125,273,-1584,0
3533937683,2463,3402,-15268,116,-92,87,-107,279,-1559,0
3533957672,2538,3295,-15362,81,-60,84,-143,285,-1573,0
3533977661,411,-1458,-14048,-134,-32,-84,-131,255,-1598,0
3533997650,1302,2984,-16477,-655,98,186,-149,255,-1598,0
3534017639,3455,3585,-15632,146,-271,504,-161,249,-1536,0
3534037628,4323,4529,-15201,183,-322,459,-167,255,-1534,0
3534057617,4205,5326,-14884,61,-147,108,-167,249,-1534,0
3534077606,3457,4439,-15644,9,-112,-247,-155,243,-1598,0
3534097595,2800,4158,-16047,-67,-133,-311,-161,243,-1559,0
3534117584,4942,5996,-16780,-66,-563,-341,-143,255,-1559,0
3534137573,5657,3820,-14131,104,-1015,-606,-149,261,-1546,0
3534157562,2997,2696,-15839,211,-952,-783,-155,255,-1609,0
3534177551,2961,2853,-16668,236,-873,-726,-113,243,-1596,0
3534197540,2771,2761,-17811,-20,-1268,-534,-125,285,-1634,0
3534217529,2621,1528,-16368,-739,-1909,334,-96,285,-1621,0
3534237518,2475,1961,-16170,-1509,-2034,1212,-90,290,-1632,0
3534257507,946,3737,-17398,-2453,-1931,1143,-90,302,-1634,0
3534277496,-997,6724,-16742,-3256,-2295,1417,-72,320,-1657,0
3534297485,-2343,8195,-15179,-2284,-2233,459,-66,332,-1596,0
3534317474,-422,5113,-14219,-1887,-595,-375,-54,356,-1596,0
3534337463,1212,7570,-16581,-2973,-437,20,-48,380,-1548,0
3534357452,-1068,10930,-17478,-2702,-940,37,-36,385,-1548,0
3534377441,-1471,10503,-16266,-2551,-854,-277,-42,421,-1511,0
3534397430,290,11167,-14999,-2376,-306,-452,-18,421,-1450,0
3534417419,-339,11775,-14418,-2283,-49,-474,-24,439,-1413,0
3534437408,-2031,10744,-13381,-2249,-78,-395,-6,481,-1388,0
3534457397,-1447,10032,-12377,-2139,-15,-150,-18,492,-1388,0
3534477386,759,11087,-12330,-1986,-32,189,-30,510,-1313,0
3534497375,2290,11388,-14566,-401,268,726,-24,498,-1290,0
3534517364,2102,10755,-10326,1801,-389,1364,-30,486,-1338,0
3534537353,1814,11390,-9430,1584,-371,1281,-48,481,-1363,0
3534557342,1445,10703,-7996,277,-158,815,-60,463,-1411,0
3534577331,1892,9346,-5965,-465,598,459,-66,469,-1388,0
3534597320,253,10066,-6836,-698,1328,645,-78,492,-1351,0
3534617309,-929,12114,-7027,-867,1469,623,-72,486,-1326,0
3534637298,-542,11633,-6755,-928,1701,72,-113,475,-1276,0
3534657287,-1394,11200,-6388,-698,1526,-558,-113,492,-1301,0
3534677276,-3078,11176,-5881,-74,1203,-1545,-125,510,-1240,0
3534697265,-4291,10520,-4155,583,1083,-2755,-96,504,-1240,0
3534717254,-5610,10468,-4721,781,1145,-3392,-60,528,-1265,0
3534737243,-4758,10644,-6039,873,669,-2362,-30,528,-1276,0
3534757232,-6550,11085,-7214,1268,234,-917,-24,558,-1326,0
3534777221,-8023,11169,-8357,1361,-667,-1583,17,546,-1350,0
3534797210,-8412,9573,-7968,1037,-1096,-3627,29,564,-1400,0
3534817199,-9181,7116,-7587,149,-181,-5646,112,564,-1411,0
3534837188,-8235,4717,-8930,-650,1499,-5582,178,581,-1375,0
3534857177,-6497,5351,-9696,-477,2594,-3351,243,570,-1400,0
3534877166,-5729,7176,-10375,154,2489,-1803,249,575,-1448,0
3534897155,-6126,7187,-10990,595,1618,-1837,267,599,-1461,0
3534917144,-6485,5411,-11215,938,700,-2618,296,593,-1450,0
3534937133,-6821,3230,-11582,1234,476,-2668,320,558,-1486,0
3534957122,-8098,1961,-13545,1675,650,-2187,350,546,-1559,0
3534977111,-9555,993,-16543,1934,498,-1803,380,528,-1621,0
3534997100,-10657,1225,-19025,1962,393,-1412,397,510,-1682,0
3535017089,-10257,2617,-19478,1825,428,-1058,403,486,-1719,0
3535037078,-9125,4176,-18869,1686,285,-874,421,463,-1769,0
3535057067,-8847,4334,-17360,1612,257,-846,427,445,-1819,0
3535077056,-9664,2837,-15147,1648,235,-796,439,445,-1855,0
3535097045,-10676,1543,-13303,1664,386,-661,421,421,-1903,0
3535117034,-11725,-46,-11977,1569,427,-651,439,391,-1903,0
3535137023,-11965,-1628,-11675,1400,296,-666,445,368,-1965,0
3535157012,-12033,-2150,-12221,1359,107,-370,445,344,-1976,0
3535177001,-11635,-1587,-14030,1408,89,-50,457,338,-2001,0
3535196990,-10884,-269,-16408,1412,304,163,445,296,-2051,0
3535216979,-10951,635,-17171,1501,155,401,439,285,-2100,0
3535236968,-10943,1690,-15023,1685,-211,649,439,285,-2100,0
3535256958,-11350,-487,-11075,1750,-387,1011,463,261,-2113,0
3535276947,-12988,-2525,-10189,913,317,1279,457,255,-2150,0
3535296936,-5497,753,-16971,-622,1365,1406,439,261,-2138,0
3535316925,1543,10650,-25980,-12,1447,1410,397,296,-2186,0
3535336914,-718,12317,-26464,1938,-764,500,386,279,-2163,0
3535356903,-7359,3493,-19562,2306,-1872,-247,415,231,-2200,0
3535376892,-12296,-2148,-15155,1172,-959,-67,433,231,-2186,0
3535396881,-12210,-1642,-13120,1,-270,512,445,213,-2161,0
3535416870,-9335,-77,-10699,-414,-264,748,451,225,-2150,0
3535436859,-8082,-467,-8360,-190,-337,522,433,243,-2161,0
3535456848,-8520,-1988,-7382,208,-166,152,445,237,-2150,0
3535476837,-9045,-3302,-7610,603,37,-151,439,231,-2150,0
3535496826,-9857,-4054,-8927,752,103,-160,451,243,-2161,0
3535516815,-9997,-5424,-10148,437,329,229,439,219,-2125,0
3535536804,-8115,-4018,-13568,-76,596,719,451,231,-2161,0
3535556793,-6632,-2493,-17633,-220,565,686,439,261,-2161,0
3535576782,-6523,-3188,-17357,89,139,555,439,249,-2125,0
3535596771,-7622,-4700,-14995,310,-253,596,409,237,-2150,0
3535616760,-7425,-5228,-13256,27,-99,784,433,237,-2173,0
3535636749,-5201,-3987,-13005,-275,134,952,427,261,-2161,0
3535656738,-3969,-3161,-13556,-191,347,934,427,290,-2125,0
3535676727,-4394,-3035,-13885,218,446,741,391,273,-2125,0
3535696716,-5357,-3669,-13579,556,402,497,385,273,-2113,0
3535716705,-5889,-3984,-13089,768,484,400,380,267,-2138,0
3535736694,-5650,-3640,-13171,836,575,323,368,273,-2150,0
3535756683,-5160,-3001,-14088,711,838,317,368,255,-2161,0
3535776672,-5891,-3680,-16153,462,788,248,356,243,-2200,0
3535796661,-6658,-4869,-18195,455,527,137,344,255,-2200,0
3535816650,-7574,-5429,-18649,589,168,149,332,243,-2150,0
3535836639,-7744,-5618,-18508,507,-35,196,344,237,-2186,0
3535856628,-7165,-5231,-17822,370,-30,231,332,231,-2175,0
3535876617,-7089,-5070,-16886,213,-35,248,332,243,-2211,0
3535896606,-6480,-4766,-15720,104,108,260,332,231,-2186,0
3535916595,-5665,-3856,-14464,134,290,306,326,249,-2223,0
3535936584,-5155,-3234,-14047,143,337,304,332,237,-2186,0
3535956573,-4971,-3001,-13704,185,244,252,296,225,-2161,0
3535976562,-5011,-2993,-13728,225,1,214,302,237,-2186,0
3535996551,-5470,-3256,-14480,357,-260,144,302,243,-2200,0
3536016540,-5925,-3307,-14838,384,-367,153,302,231,-2211,0
3536036529,-5863,-2809,-14915,226,-356,280,296,219,-2175,0
3536056518,-5266,-2190,-14699,96,-316,374,296,243,-2186,0
3536076507,-5034,-1768,-14543,17,-208,352,290,243,-2175,0
3536096496,-4998,-1937,-14425,26,-198,252,302,225,-2150,0
3536116485,-5371,-2346,-14766,208,-107,248,308,243,-2186,0
3536136474,-6248,-2717,-15393,330,-108,293,308,231,-2186,0
3536156463,-6702,-2953,-16181,235,-219,401,290,231,-2173,0
3536176452,-7168,-3206,-16288,228,-343,283,302,225,-2161,0
3536196441,-6973,-3241,-15949,387,-445,45,290,243,-2186,0
3536216430,-7008,-3198,-16032,337,-369,-56,302,219,-2150,0
3536236419,-6924,-3299,-16900,198,-153,-128,320,213,-2088,0
3536256408,-7220,-3282,-17063,299,-296,-178,279,243,-2125,0
3536276397,-8875,-1618,-14737,648,-324,119,302,225,-2150,0
3536296386,-11595,-1651,-14551,709,109,633,290,195,-2161,0
3536316375,-11445,-4002,-17594,17,328,550,290,201,-2136,0
3536336364,-6904,-3292,-19559,-559,302,850,273,219,-2138,0
3536356353,-2935,-463,-17121,-418,-22,1141,237,213,-2136,0
3536376342,-1850,265,-12912,-354,-173,863,231,219,-2150,0
3536396331,-1681,-1220,-10110,-514,54,476,231,237,-2075,0
3536416320,-3323,-1791,-10245,-620,407,565,237,249,-2088,0
3536436309,-4892,-1829,-11374,-569,382,369,207,243,-2075,0
3536456298,-4880,-2555,-11705,-239,36,117,195,267,-2063,0
3536476287,-5473,-2486,-11169,47,3,97,190,261,-2063,0
3536496276,-5714,-2578,-11311,-76,301,-99,172,255,-2075,0
3536516265,-6301,-2792,-12065,-292,638,-52,172,249,-2038,0
3536536254,-6143,-2745,-11820,-308,730,108,154,261,-2001,0
3536556243,-7049,-2474,-12826,-147,726,276,142,267,-2038,0
3536576232,-8450,-2584,-14495,68,728,97,124,261,-2026,0
3536596221,-8994,-3340,-15388,255,552,-172,112,273,-2038,0
3536616210,-9867,-3542,-15557,316,304,-87,112,261,-2013,0
3536636199,-9506,-3370,-15136,149,468,3,95,249,-2001,0
3536656188,-9129,-2977,-14232,60,774,-28,89,261,-2026,0
3536676177,-8566,-2880,-13432,-132,849,-310,59,255,-1990,0
3536696166,-6754,-2394,-13207,-308,536,-440,53,255,-1976,0
3536716156,-6061,-1694,-14017,-308,412,-365,41,267,-1965,0
3536736145,-6655,-1719,-14941,-203,55,-396,41,273,-1976,0
3536756134,-7526,-1893,-14994,-30,-336,-537,35,279,-1951,0
3536776123,-8092,-2475,-15275,-209,-453,-594,59,273,-1940,0
3536796112,-8744,-2688,-16160,-163,-30,-629,41,261,-1953,0
3536816101,-8587,-3334,-16633,-266,26,-652,53,267,-1915,0
3536836090,-7578,-3165,-18074,-373,3,-569,59,285,-1940,0
3536856079,-7229,-2363,-17508,-40,-393,-402,47,273,-1915,0
3536876068,-6850,-2486,-14599,142,-775,-306,77,285,-1903,0
3536896057,-6769,-2390,-14180,-107,-524,-291,71,261,-1903,0
3536916046,-7100,-2592,-16009,-435,-211,-365,77,273,-1892,0
3536936035,-8134,-3802,-16425,-575,-185,-332,65,290,-1915,0
3536956024,-8741,-4797,-15839,-697,-141,-142,71,285,-1892,0
3536976013,-8773,-4713,-15469,-841,229,208,65,285,-1853,0
3536996002,-7148,-2520,-17220,-1311,612,558,71,308,-1878,0
3537015991,-4255,305,-20196,-1533,505,625,47,314,-1817,0
3537035980,-2981,1086,-19902,-1021,-13,528,23,308,-1792,0
3537055969,-2698,844,-16805,-926,-61,337,23,296,-1780,0
3537075958,-2957,-237,-16364,-1346,693,17,5,326,-1805,0
3537095947,-2421,-199,-15803,-1157,1338,-120,11,326,-1769,0
3537115936,-1821,425,-15361,-1012,1441,14,-6,314,-1732,0
3537135925,-990,1714,-16725,-1041,1177,3,-36,338,-1682,0
3537155914,767,2739,-17128,-738,513,-252,-36,326,-1657,0
3537175903,1403,3502,-15884,-95,-105,-541,-30,356,-1646,0
3537195892,-3188,2528,-14908,94,-485,-1355,-36,326,-1671,0
3537215881,-2244,99,-14209,-314,-787,-2851,0,344,-1646,0
3537235870,-2986,-1584,-14961,-608,-495,-2484,-6,338,-1657,0
3537255859,-3540,-2613,-14949,-665,-172,-994,23,356,-1632,0
3537275848,-5182,-1073,-15143,-314,351,-81,23,385,-1632,0
3537295837,-5184,-1229,-15570,64,394,-286,23,385,-1621,0
3537315826,-5888,-1607,-14174,207,121,-441,5,356,-1634,0
3537335815,-5946,-2166,-14000,-316,117,-602,11,362,-1607,0
3537355804,-6213,-2123,-13883,-546,293,-501,11,362,-1596,0
3537375793,-5815,-1639,-13152,-480,339,-448,23,385,-1621,0
3537395782,-4496,915,-12446,-401,703,-345,5,385,-1596,0
3537415771,-4050,2203,-13902,-662,885,-473,0,403,-1559,0
3537435760,-3762,1520,-14798,-320,456,-772,5,391,-1571,0
3537455749,-4032,34,-13669,537,113,-874,-6,403,-1534,0
3537475738,-5163,-576,-14004,685,215,-759,5,374,-1596,0
3537495727,-5661,349,-18405,87,307,-701,-6,362,-1596,0
3537515716,-4587,574,-18188,-107,-66,-666,17,391,-1509,0
3537535705,-4233,69,-14254,93,-328,-502,11,391,-1559,0
3537555694,-3923,161,-11653,42,154,-382,17,391,-1559,0
3537575683,-2874,1708,-12866,-458,1005,-255,17,409,-1548,0
3537595672,-1396,2405,-17166,-359,1394,-140,5,391,-1534,0
3537615661,-2156,3033,-15392,526,312,-298,-12,409,-1546,0
3537635650,-2372,2634,-15944,90,-405,-951,0,385,-1523,0
3537655639,-2992,454,-13359,-213,-425,-1346,29,391,-1511,0
3537675628,-4124,202,-12949,-723,342,-1173,23,397,-1534,0
3537695617,-3630,473,-13589,-965,1178,-913,17,391,-1523,0
3537715606,-2763,1169,-15008,-882,1269,-426,17,409,-1436,0
3537735595,-2890,930,-16260,119,608,235,17,427,-1473,0
3537755584,-4040,1036,-14976,1199,233,757,23,421,-1461,0
3537775573,-4153,1568,-14259,1353,567,621,5,397,-1486,0
3537795562,-3935,2952,-16566,514,769,477,-12,397,-1473,0
3537815551,-3923,3239,-19673,-489,1196,155,0,374,-1486,0
3537835540,-3101,1184,-15261,-588,3280,-466,-42,391,-1436,0
3537855529,-627,2287,-12539,676,2209,-741,-42,385,-1411,0
3537875518,-258,1286,-15457,1273,329,-214,-42,374,-1473,0
3537895507,374,-971,-15088,748,622,-233,-48,385,-1425,0
3537915496,803,-1537,-15850,524,378,-466,-60,362,-1425,0
3537935485,31,-283,-16550,507,175,-571,-48,374,-1411,0
3537955474,26,66,-17146,350,143,-483,-30,368,-1436,0
3537975463,200,272,-17004,236,125,-405,-30,374,-1425,0
3537995452,823,-266,-16017,257,191,-303,-48,380,-1411,0
3538015441,1791,-1124,-14947,254,150,-252,-42,362,-1411,0
3538035430,1915,-835,-14823,112,-11,-321,-48,368,-1400,0
3538055419,1742,-61,-14790,110,-66,-423,-30,362,-1363,0
3538075408,1781,509,-14840,271,-80,-421,-36,362,-1400,0
3538095397,2267,168,-15207,321,-100,-322,-48,344,-1411,0
3538115386,2779,-457,-15843,297,-221,-249,-36,362,-1425,0
3538135375,3196,-1203,-16791,220,-271,-247,-24,374,-1436,0
3538155364,3316,-2173,-16928,178,-201,-330,-18,368,-1388,0
3538175354,3340,-2181,-17393,184,-171,-449,-24,350,-1436,0
3538195343,3110,-2108,-17232,158,-111,-546,-18,356,-1425,0
3538215332,2776,-1690,-16537,86,-153,-628,0,344,-1436,0
3538235321,2279,-1094,-16053,-28,-219,-660,0,350,-1411,0
3538255310,2211,-1398,-15782,-152,-249,-645,5,356,-1400,0
3538275299,1927,-1320,-15721,-164,-273,-635,11,368,-1411,0
3538295288,1263,-753,-15110,50,-180,-607,17,362,-1425,0
3538315277,1124,-267,-15453,102,-132,-547,5,380,-1400,0
3538335266,1284,-255,-15960,-6,-162,-458,35,356,-1411,0
3538355255,1940,-1022,-15628,-80,-266,-414,35,350,-1425,0
3538375244,2766,-1962,-15788,-77,-315,-335,47,356,-1388,0
3538395233,2799,-2847,-15703,99,-226,-303,29,350,-1375,0
3538415222,2513,-2649,-15287,271,-182,-396,41,326,-1411,0
3538435211,2258,-2631,-15791,185,-149,-453,53,332,-1400,0
3538455200,2135,-2839,-16948,16,-81,-516,53,350,-1400,0
3538475189,1921,-2787,-17233,-109,-56,-564,47,350,-1400,0
3538495178,1088,-2330,-16987,-313,-206,-558,59,356,-1411,0
3538515167,372,-1159,-17093,-490,-430,-517,83,356,-1400,0
3538535156,-280,-1135,-16983,-438,-479,-503,83,326,-1350,0
3538555145,-102,-1226,-15676,-205,-459,-653,89,326,-1375,0
3538575134,112,-1216,-14809,-207,-481,-740,95,338,-1363,0
3538595123,-180,-832,-14755,-399,-599,-730,100,338,-1363,0
3538615112,-428,-183,-15630,-663,-695,-735,112,350,-1363,0
3538635101,-186,-409,-16249,-856,-674,-898,130,356,-1338,0
3538655090,-64,-332,-16733,-979,-569,-1202,136,344,-1338,0
3538675079,-429,809,-17185,-1386,-91,-1596,154,350,-1326,0
3538695068,-2759,1564,-16324,-1489,28,-1574,172,362,-1301,0
3538715057,-2699,1824,-16497,-703,-251,-1335,166,380,-1265,0
3538735046,-2097,2320,-16331,-214,-268,-1190,184,350,-1301,0
3538755035,-2121,1702,-15750,-134,-219,-1020,190,374,-1276,0
3538775024,-1471,1448,-15540,189,-278,-940,207,344,-1288,0
3538795013,220,1900,-16093,253,-274,-759,201,356,-1251,0
3538815002,-1051,-190,-15911,-165,37,-207,195,362,-1263,0
3538834991,-1900,-1867,-15184,96,12,-496,207,356,-1265,0
3538854980,-1410,-149,-14465,470,-247,-1014,213,332,-1276,0
3538874969,-1866,119,-14320,125,-535,-1094,225,332,-1288,0
3538894958,-2195,648,-15027,-253,-806,-1112,231,338,-1288,0
3538914947,-2644,-34,-15424,-276,-664,-1018,237,338,-1265,0
3538934936,-2646,-495,-15503,-26,-227,-1002,249,320,-1265,0
3538954925,-2939,-1592,-16642,104,-45,-1045,261,320,-1276,0
3538974914,-2880,-572,-15600,616,149,-1263,279,326,-1288,0
3538994903,-3235,987,-12696,854,-107,-1352,285,320,-1313,0
3539014892,-3602,1109,-12047,343,-679,-1179,290,326,-1301,0
3539034881,-3973,-356,-13399,-339,-1321,-975,302,320,-1276,0
3539054870,-3999,-191,-15723,-582,-1857,-935,320,296,-1313,0
3539074859,-3548,-929,-17226,-510,-1537,-947,332,308,-1265,0
3539094848,-3195,-1395,-18121,-337,-654,-978,338,296,-1276,0
3539114837,-4574,-1240,-16866,-78,87,-962,338,290,-1240,0
3539134826,-5521,-415,-16169,64,157,-1009,356,285,-1240,0
3539154815,-5784,392,-16149,188,2,-993,350,285,-1265,0
3539174804,-5824,-132,-16192,232,-151,-884,362,296,-1265,0
3539194793,-5520,-1569,-14975,363,-215,-878,374,261,-1288,0
3539214782,-5366,-1128,-14729,213,-433,-963,385,285,-1226,0
3539234771,-5311,-1126,-15486,-137,-488,-938,368,243,-1240,0
3539254760,-5463,-1208,-15542,-315,-250,-889,391,273,-1265,0
3539274749,-6167,-577,-15307,-446,-68,-832,385,243,-1251,0
3539294738,-6513,-189,-15499,-514,-27,-769,385,273,-1276,0
3539314727,-6611,-1624,-15056,-455,87,-783,409,249,-1226,0
3539334716,-5421,-179,-15128,-316,-87,-1007,409,231,-1215,0
3539354705,-5342,-932,-14626,-266,-173,-716,397,219,-1263,0
3539374694,-5587,-1368,-14176,-249,-279,-637,409,231,-1251,0
3539394683,-6404,-466,-15055,-367,-413,-732,421,243,-1178,0
3539414672,-7801,2095,-15354,-705,-126,-979,439,255,-1215,0
3539434661,-6609,354,-14624,-819,203,-962,433,207,-1203,0
3539454650,-5745,-1039,-14803,-552,85,-654,433,219,-1203,0
3539474639,-6176,-527,-15864,-493,56,-662,433,219,-1190,0
3539494628,-6113,913,-16856,-149,-52,-839,445,231,-1203,0
3539514617,-5688,106,-16535,402,-347,-983,445,225,-1190,0
3539534606,-5928,-2389,-15710,910,-478,-1426,463,201,-1190,0
3539554595,-5974,-1946,-15738,1398,-437,-1986,451,184,-1190,0
3539574584,-5423,-2088,-14276,1264,-189,-1605,457,184,-1215,0
3539594573,-4991,-1756,-14425,374,-149,-948,492,154,-1226,0
3539614562,-5974,-2486,-14985,-134,-150,-804,492,154,-1178,0
3539634552,-6421,-2710,-14947,-351,-135,-728,481,124,-1178,0
3539654541,-7140,-2943,-15215,-103,-272,-785,480,148,-1215,0
3539674530,-6725,-3265,-13992,195,-431,-832,504,142,-1178,0
3539694519,-7494,-4055,-13958,-2,-390,-596,504,142,-1178,0
3539714508,-8041,-4359,-14580,118,-426,-413,504,130,-1178,0
3539734497,-7576,-3473,-15355,508,-539,-314,504,118,-1190,0
3539754486,-6550,-2106,-15791,515,-658,-335,504,106,-1178,0
3539774475,-4437,-682,-14925,312,-690,-776,516,112,-1190,0
3539794464,-5951,-1898,-14417,65,-564,-1021,510,112,-1153,0
3539814453,-6744,-4341,-13151,-66,-456,-616,522,112,-1142,0
3539834442,-7210,-4250,-13610,9,-427,-396,516,89,-1142,0
3539854431,-7815,-4295,-13471,187,-567,-346,516,89,-1153,0
3539874420,-6848,-4378,-11950,639,-732,-469,534,100,-1167,0
3539894409,-6409,-4784,-10183,1072,-623,-844,534,77,-1128,0
3539914398,-8573,-6528,-11086,537,-472,-699,534,89,-1103,0
3539934387,-9497,-6143,-12583,-12,-420,-454,534,77,-1103,0
3539954376,-9758,-5022,-14163,-531,-582,-102,546,71,-1142,0
3539974365,-6650,-2978,-12690,-487,-609,-38,552,83,-1117,0
3539994354,-7384,-3010,-12663,-502,-302,-212,540,59,-1067,0
3540014343,-8476,-4217,-13143,-107,-147,-262,552,83,-1092,0
3540034332,-8282,-4194,-14188,106,-143,-277,540,65,-1128,0
3540054321,-8304,-4427,-14043,-123,-421,-324,534,65,-1080,0
3540074310,-8720,-5011,-13596,-274,-648,-355,546,77,-1067,0
3540094299,-8306,-5407,-12574,-547,-514,-403,546,65,-1080,0
3540114288,-8564,-4926,-12004,-408,-393,-467,546,59,-1055,0
3540134277,-8872,-5328,-11916,490,-398,-607,558,53,-1030,0
3540154266,-9673,-5583,-12910,1276,-495,-714,546,59,-1042,0
3540174255,-9954,-6313,-13407,1126,-567,-370,534,29,-1067,0
3540194244,-9515,-6650,-12646,718,-667,-89,564,47,-1030,0
3540214233,-9116,-6098,-11468,792,-774,-115,575,29,-1019,0
3540234222,-8959,-5897,-10738,739,-719,-133,552,23,-1019,0
3540254211,-10279,-7194,-10921,719,-677,-160,570,41,-1030,0
3540274200,-10834,-7223,-11066,937,-757,-352,558,29,-994,0
3540294189,-10794,-7307,-10679,607,-678,-18,558,23,-969,0
3540314178,-10547,-7693,-10600,700,-810,130,558,35,-969,0
3540334167,-8346,-7807,-9709,1231,-854,-627,570,29,-944,0
3540354156,-10702,-5039,-9616,781,-598,-1011,581,0,-957,0
3540374145,-11944,-10262,-10283,-260,-359,475,576,5,-921,0
3540394134,-10647,-8057,-10169,-375,-317,147,570,5,-932,0
3540414123,-8008,-5067,-8269,497,-347,-379,570,5,-932,0
3540434112,-9410,-5550,-9737,972,-247,-512,570,5,-907,0
3540454101,-10564,-8818,-10012,276,-277,-371,575,0,-896,0
3540474090,-10385,-8996,-7623,425,-417,-751,570,-18,-932,0
3540494079,-9904,-8549,-7287,145,-213,-363,587,-12,-932,0
3540514068,-10402,-7768,-9232,-555,78,227,587,0,-907,0
3540534057,-10754,-7326,-10050,-949,113,466,564,5,-932,0
3540554046,-10904,-6947,-10357,-1335,129,778,575,-6,-896,0
3540574035,-12026,-8111,-10111,-965,71,755,558,11,-932,0
3540594024,-12486,-8475,-10511,-270,-127,587,570,17,-896,0
3540614013,-13053,-8371,-11385,137,-367,330,564,23,-896,0
3540634002,-12405,-7871,-10642,488,-634,-9,575,17,-882,0
3540653991,-10442,-7019,-8583,416,-621,-115,558,29,-896,0
3540673980,-10668,-6333,-8271,-45,-304,56,575,23,-871,0
3540693969,-11422,-6413,-9416,-194,-134,315,564,5,-884,0
3540713958,-10284,-6501,-8533,210,-265,138,564,35,-907,0
3540733947,-11043,-6389,-8961,513,-417,-52,581,17,-859,0
3540753936,-11256,-6465,-9546,937,-572,-304,552,23,-859,0
3540773925,-10215,-5046,-9524,790,-636,-553,558,29,-834,0
3540793914,-11195,-6198,-9877,643,-717,-856,564,11,-859,0
3540813903,-11419,-6912,-9039,967,-926,-1272,570,0,-798,0
3540833892,-10794,-7275,-8474,1457,-1161,-1676,570,-12,-786,0
3540853881,-9633,-7839,-5748,1448,-1210,-1840,570,-30,-773,0
3540873870,-10213,-9368,-4852,717,-826,-1467,570,-36,-773,0
3540893859,-9405,-10106,-3320,-52,-288,-888,570,-18,-748,0
3540913848,-8588,-7674,-5348,-452,127,-824,570,-48,-784,0
3540933837,-11196,-10919,-6489,-821,287,-885,558,-66,-798,0
3540953826,-11837,-13529,-5853,-1168,381,-692,558,-66,-784,0
3540973815,-11442,-13892,-5996,-1235,473,-530,570,-72,-773,0
3540993804,-11274,-13258,-7134,-953,487,-533,581,-78,-809,0
3541013793,-10862,-11704,-8278,-956,492,-387,558,-90,-823,0
3541033782,-11550,-11118,-9780,-981,575,-357,552,-90,-823,0
3541053771,-10606,-10695,-8875,-881,451,-326,558,-96,-834,0
3541073760,-10728,-11179,-9533,-760,288,-246,558,-84,-834,0
3541093750,-10303,-10416,-10360,-48,4,-268,576,-84,-798,0
3541113739,-9348,-9809,-9912,655,-257,-333,564,-107,-834,0
3541133728,-8235,-10084,-8049,136,-60,-166,558,-96,-823,0
3541153717,-8990,-10941,-7486,-1179,392,235,558,-96,-809,0
3541173706,-8906,-9487,-8963,-1720,475,559,558,-101,-834,0
3541193695,-9588,-8463,-10612,-1992,193,696,564,-90,-823,0
3541213684,-9212,-8102,-10013,-2087,-121,523,570,-72,-823,0
3541233673,-9522,-8225,-9748,-1675,-339,214,564,-78,-834,0
3541253662,-9955,-8011,-10582,-1043,-482,-19,546,-90,-834,0
3541273651,-10144,-7604,-10706,-798,-495,-44,558,-78,-846,0
3541293640,-10765,-7840,-10887,-589,-459,-121,570,-66,-834,0
3541313629,-10918,-7589,-11246,-454,-268,-146,570,-78,-823,0
3541333618,-10910,-8052,-10740,-249,-63,-256,564,-113,-823,0
3541353607,-9760,-6001,-11849,140,-474,-408,564,-107,-834,0
3541373596,-10477,-6633,-10501,447,-1544,-385,575,-90,-798,0
3541393585,-10849,-8623,-8259,-23,-896,-380,576,-96,-798,0
3541413574,-10018,-8839,-8290,-491,-336,-39,575,-101,-761,0
3541433563,-10829,-10108,-8798,-916,-87,230,558,-90,-748,0
3541453552,-10587,-9765,-8135,-881,81,369,552,-96,-736,0
3541473541,-11411,-9842,-9400,-1012,310,607,564,-101,-773,0
3541493530,-11045,-9418,-8904,-1063,368,671,587,-84,-798,0
3541513519,-10667,-7398,-10615,-1232,492,870,576,-90,-798,0
3541533508,-9476,-1650,-13347,-1033,528,827,576,-96,-798,0
3541553497,-9451,-2624,-12152,-1015,486,817,570,-72,-809,0
3541573486,-9832,-3449,-10080,-1510,447,875,581,-60,-834,0
3541593475,-10240,-2981,-10940,-1625,480,1034,575,-48,-798,0
3541613464,-10713,-3297,-10774,-1925,319,1184,581,-48,-871,0
3541633453,-11441,-3625,-12102,-1801,231,1288,587,-30,-809,0
3541653442,-10476,-3137,-11015,-805,49,1003,581,-24,-823,0
3541673431,-12775,-2836,-14812,-68,39,594,581,-24,-834,0
3541693420,-8338,-320,-9043,641,-241,241,587,-18,-859,0
3541713409,-10524,-1941,-10700,-118,58,572,570,-24,-859,0
3541733398,-10247,-2043,-10318,-365,236,694,558,0,-834,0
3541753387,-10843,-3275,-10816,-8,132,635,581,0,-859,0
3541773376,-11916,-4326,-11499,322,-67,572,575,17,-871,0
3541793365,-12129,-4139,-10184,914,-236,594,599,17,-823,0
3541813354,-11664,-4399,-9058,1326,-238,966,576,5,-859,0
3541833343,-11310,-2767,-11501,1663,-274,1190,564,23,-859,0
3541853332,-11948,-2171,-15498,1418,-427,1337,581,29,-834,0
3541873321,-11669,395,-15060,2330,-1108,409,564,47,-859,0
3541893310,-9701,579,-10308,759,-1336,708,564,53,-846,0
3541913299,-11889,-1254,-9527,-61,-694,719,575,53,-798,0
3541933288,-11357,-2372,-7262,42,-386,686,570,59,-784,0
3541953277,-12037,-1726,-11291,504,-395,710,570,59,-809,0
3541973266,-9788,514,-11127,1026,-193,521,558,95,-798,0
3541993255,-10134,995,-9460,179,115,612,564,77,-784,0
3542013244,-13949,-2306,-12954,-333,-55,732,558,100,-823,0
3542033233,-14473,-1888,-13456,-353,-364,474,558,95,-784,0
3542053222,-13319,-1136,-10946,505,-1109,-201,558,89,-773,0
3542073211,-11163,-778,-8244,385,-1234,-393,558,95,-773,0
3542093200,-12348,-834,-9377,-211,-670,-411,564,95,-748,0
3542113189,-11667,-1804,-7328,-310,-150,-158,570,95,-736,0
3542133178,-12758,-3638,-6910,-263,137,-37,558,83,-748,0
3542153167,-13454,-3311,-8049,-234,246,198,558,65,-723,0
3542173156,-12977,-1313,-9762,-86,283,323,570,83,-748,0
3542193145,-13778,-947,-11650,247,141,202,534,83,-761,0
3542213134,-14060,-1558,-10207,32,33,336,570,71,-773,0
3542233123,-13629,-2020,-8857,-339,170,614,540,95,-723,0
3542253112,-12496,-1376,-9447,-468,219,608,564,95,-784,0
3542273101,-9528,1915,-11424,-706,450,250,552,112,-773,0
3542293090,-9153,2816,-12702,-1047,1219,-24,546,100,-798,0
3542313079,-14723,-2191,-10885,-597,680,-824,564,100,-773,0
3542333068,-14292,-3105,-8249,128,-28,-599,570,83,-761,0
3542353057,-15130,-4477,-9303,415,-25,31,552,83,-798,0
3542373046,-14947,-5247,-8369,301,267,685,552,106,-761,0
3542393035,-15104,-3587,-10671,147,652,1220,552,95,-798,0
3542413024,-12651,209,-13325,242,634,1233,558,106,-821,0
3542433013,-11203,1839,-11743,-354,572,1192,540,106,-834,0
3542453002,-10870,2091,-10360,-551,526,1168,552,124,-834,0
3542472991,-9284,3999,-11162,-33,374,701,534,148,-798,0
3542492980,-10130,3383,-12123,483,229,93,534,142,-834,0
3542512969,-10963,1943,-12148,885,34,-433,534,130,-882,0
3542532958,-11692,1192,-12163,791,-25,-538,534,130,-821,0
3542552947,-11885,-941,-11020,908,-146,-425,546,130,-871,0
3542572937,-11622,-939,-10283,770,-191,-296,552,124,-809,0
3542592926,-11507,-455,-10116,813,-21,-64,552,148,-834,0
3542612915,-12284,-1830,-9688,1181,157,260,546,124,-882,0
3542632904,-11620,-1369,-9867,1033,234,478,528,130,-871,0
3542652893,-11691,-812,-10569,506,357,717,534,124,-882,0
3542672882,-12831,-1110,-12643,195,522,1047,540,166,-871,0
3542692871,-10990,86,-12081,285,201,885,534,142,-882,0
3542712860,-11428,-574,-11575,362,72,624,534,154,-907,0
3542732849,-11657,-344,-11906,554,-24,406,540,166,-882,0
3542752838,-11015,126,-11501,697,-228,343,522,166,-871,0
3542772827,-11672,-517,-10824,413,-236,417,528,160,-921,0
3542792816,-11214,-669,-10639,102,-81,492,528,172,-907,0
3542812805,-12984,-1226,-12353,-112,-184,224,534,184,-921,0
3542832794,-12594,-534,-12606,-839,-727,356,516,172,-871,0
3542852783,-10716,118,-11157,-77,-654,221,516,172,-896,0
3542872772,-11676,-473,-9673,954,-59,-8,516,166,-882,0
3542892761,-11492,-1091,-8999,1015,267,129,510,178,-907,0
3542912750,-11375,-2254,-8935,577,179,145,516,178,-907,0
3542932739,-11766,-1033,-10509,682,-202,-323,510,184,-882,0
3542952728,-12315,-56,-11897,409,-303,-186,516,166,-907,0
3542972717,-12286,-1747,-11069,216,117,150,510,178,-882,0
3542992706,-11598,-1657,-10588,866,135,-170,516,184,-907,0
3543012695,-12712,-2401,-10630,1195,148,-508,510,166,-896,0
3543032684,-12280,-77,-10986,868,0,-317,504,160,-921,0
3543052673,-11800,-530,-11312,533,139,296,504,166,-907,0
3543072662,-12137,-2576,-10849,451,580,608,510,166,-944,0
3543092651,-13225,-3116,-10702,675,884,251,522,166,-957,0
3543112640,-13693,-1724,-10681,697,616,143,504,148,-982,0
3543132629,-13142,-2780,-12367,597,-84,-1061,516,172,-994,0
3543152618,-10705,-2292,-12089,357,162,-1571,504,178,-1005,0
3543172607,-10631,-2745,-11705,285,495,-848,522,160,-1005,0
3543192596,-11379,-3401,-11086,926,195,-325,504,154,-1019,0
3543212585,-11676,-3770,-10609,1189,-246,-117,522,130,-1005,0
3543232574,-11499,-4117,-10987,586,-497,129,516,136,-1019,0
3543252563,-11019,-3430,-11672,-209,-482,321,504,142,-1005,0
3543272552,-10764,-3207,-11873,-232,-32,430,522,154,-1005,0
3543292541,-10943,-3880,-11964,114,599,311,510,142,-1019,0
3543312530,-12080,-4355,-12508,259,1301,124,516,148,-1019,0
3543332519,-11553,-4682,-12909,764,1796,-263,510,148,-1019,0
3543352508,-10898,-4926,-13850,2190,2546,-819,528,118,-1103,0
3543372497,-8939,-5697,-12535,3034,2974,-1393,492,130,-1190,0
3543392486,-7433,-6828,-12100,2083,2591,-1747,510,100,-1178,0
3543412475,-7305,-6431,-11167,1845,2792,-2377,516,77,-1265,0
3543432464,-6101,-7247,-9424,1064,2323,-1916,498,53,-1288,0
3543452453,-5834,-8017,-11385,-688,221,-1372,504,47,-1263,0
3543472442,-6657,-9017,-10893,-1757,-325,-1067,492,41,-1325,0
3543492431,-6495,-7588,-13226,-1990,118,-697,480,59,-1265,0
3543512420,-5691,-7162,-15870,-1481,-774,-383,498,53,-1240,0
3543532409,-5199,-5932,-15196,-1345,-1108,-318,486,53,-1226,0
3543552398,-5685,-4936,-13706,-1293,-722,-529,492,47,-1240,0
3543572387,-6960,-6495,-13766,-951,-290,-571,510,77,-1201,0
3543592376,-5829,-5167,-13287,-874,-8,-492,504,65,-1190,0
3543612365,-5141,-4343,-14041,-847,229,-415,504,53,-1201,0
3543632354,-5700,-5013,-14705,-654,171,-434,516,47,-1215,0
3543652343,-6333,-5494,-14845,-384,149,-407,498,59,-1226,0
3543672332,-5999,-5924,-14045,-314,206,-285,504,53,-1203,0
3543692321,-4304,-4008,-13374,-496,286,-322,522,53,-1226,0
3543712310,-4364,-3797,-13598,-137,511,-380,510,53,-1251,0
3543732299,-4284,-4191,-13617,-522,755,-35,510,59,-1215,0
3543752288,-4064,-4172,-14343,-1407,1209,288,504,65,-1215,0
3543772277,-4322,-4004,-15253,-1903,1091,211,510,77,-1263,0
3543792266,-5022,-4646,-16810,-1445,320,-20,486,53,-1240,0
3543812255,-5322,-4195,-17183,-1035,-190,-300,498,83,-1215,0
3543832244,-4949,-3296,-15044,-364,-406,-470,498,65,-1226,0
3543852233,-4282,-2621,-14267,187,-286,-313,504,95,-1251,0
3543872222,-5163,-3273,-14906,362,-224,-107,498,65,-1226,0
3543892211,-4719,-3221,-14528,291,-237,-217,498,77,-1251,0
3543912200,-5009,-2660,-15412,-191,-204,-149,510,71,-1215,0
3543932189,-4537,-3293,-15595,-650,-192,-62,504,65,-1203,0
3543952178,-4752,-3844,-14405,58,-58,53,510,65,-1190,0
3543972167,-5731,-3212,-14155,562,-136,1,510,59,-1226,0
3543992156,-5659,-4179,-16089,605,-327,-131,492,65,-1215,0
3544012145,-5570,-3998,-15433,1142,-743,-180,510,59,-1226,0
3544032135,-5103,-4240,-13379,1161,-816,-360,498,71,-1201,0
3544052124,-4721,-4428,-13662,387,-813,-181,504,65,-1178,0
3544072113,-5952,-3486,-14332,523,-695,1,522,53,-1226,0
3544092102,-5747,-4571,-13933,647,-457,21,522,53,-1240,0
3544112091,-5728,-5253,-14795,144,-265,83,510,59,-1178,0
3544132080,-6022,-5026,-14905,-179,11,16,516,41,-1153,0
3544152069,-5756,-4349,-14547,-95,88,-91,510,35,-1178,0
3544172058,-5661,-4506,-12889,85,96,-213,534,65,-1190,0
3544192047,-5481,-4327,-13350,332,-34,-192,522,47,-1153,0
3544212036,-5295,-5124,-13892,649,184,-310,522,41,-1226,0
3544232025,-5334,-5529,-14344,495,167,-308,522,41,-1178,0
3544252014,-5998,-6109,-15012,20,-178,-120,504,47,-1178,0
3544272003,-5822,-5420,-12412,383,32,-60,522,53,-1190,0
3544291992,-5332,-3810,-13382,314,129,-71,528,35,-1190,0
3544311981,-5456,-4987,-15427,106,418,-228,522,29,-1165,0
3544331970,-6439,-5189,-14527,-655,-640,-256,540,47,-1203,0
3544351959,-7227,-5856,-14895,-1130,-1697,-99,528,29,-1165,0
3544371948,-6271,-5017,-12962,-824,-1243,254,528,47,-1142,0
3544391937,-7098,-4496,-13441,-937,-698,491,528,47,-1142,0
3544411926,-8242,-5062,-14469,-934,-408,312,522,41,-1117,0
3544431915,-8342,-4651,-14138,-664,-274,-56,540,41,-1103,0
3544451904,-8068,-4136,-13330,-306,-127,-286,522,53,-1117,0
3544471893,-7421,-4249,-13572,-169,164,-585,546,65,-1128,0
3544491882,-7026,-4410,-14123,-373,520,-951,552,47,-1092,0
3544511871,-6584,-3877,-14419,-1254,818,-965,528,29,-1103,0
3544531860,-6832,-1727,-16587,-2235,1749,-699,546,23,-1128,0
3544551849,-3808,-1323,-13730,-2844,2987,-259,522,41,-1128,0
3544571838,-2928,-1903,-13169,-2538,1862,37,510,47,-1190,0
3544591827,-3256,-727,-15241,-1986,636,357,522,65,-1215,0
3544611816,-4871,517,-15759,-1498,58,885,534,65,-1178,0
3544631805,-6450,-173,-14131,-2002,105,527,510,59,-1190,0
3544651794,-4637,2349,-13519,-4397,471,-807,504,89,-1178,0
3544671783,-3199,6040,-17740,-8235,1627,-1243,492,112,-1165,0
3544691772,-4283,4416,-17730,-4010,801,-677,522,124,-1128,0
3544711761,-2540,5643,-13941,-1108,-182,-778,504,124,-1153,0
3544731750,-3835,7231,-17138,410,-605,-537,498,118,-1128,0
3544751739,-4023,5542,-14612,1809,-778,-574,516,112,-1117,0
3544771728,-4924,6694,-16226,2666,-1113,-826,516,95,-1128,0
3544791717,-5381,3055,-14702,3160,-1380,-1042,528,89,-1103,0
3544811706,-5354,-121,-12224,3750,-2025,-1558,522,71,-1128,0
3544831695,-6506,-261,-13340,3758,-2706,-2310,534,41,-1067,0
3544851684,-7824,-814,-14247,2687,-1945,-2588,558,17,-1042,0
3544871673,-7472,-1510,-15151,1087,-552,-2420,552,-18,-1019,0
3544891662,-7108,-1882,-14516,537,214,-1922,552,-36,-1030,0
3544911651,-7110,-2067,-13976,457,108,-812,552,-36,-1019,0
3544931640,-7470,-2563,-13329,591,571,-524,558,-48,-1042,0
3544951629,-5700,-2315,-14046,497,1024,-489,540,-48,-1067,0
3544971618,-6207,-2613,-15109,323,1361,-111,540,-60,-1067,0
3544991607,-6835,-3644,-15985,68,1230,369,546,-60,-1103,0
3545011596,-5139,-2751,-15154,168,487,388,546,-60,-1080,0
3545031585,-4499,-2119,-14461,-56,-438,1360,528,-60,-1080,0
3545051574,-7602,-3309,-15021,-475,-778,1870,546,-42,-1080,0
3545071563,-6920,-2768,-15350,-163,-254,926,546,-24,-1092,0
3545091552,-6590,-3315,-15206,132,375,652,546,-18,-1055,0
3545111541,-7372,-2397,-13816,146,504,181,558,-6,-1103,0
3545131530,-5120,-3982,-14362,-291,-827,601,552,-12,-1092,0
3545151519,-5976,-1802,-13185,435,-1106,232,552,5,-1103,0
3545171508,-7529,2212,-14822,918,-574,-876,522,-18,-1080,0
3545191497,-7417,541,-14915,-129,-553,562,558,-18,-1067,0
3545211486,-7965,-1579,-15469,-711,-394,1715,558,0,-1030,0
3545231475,-8283,-1311,-14409,12,293,1487,546,5,-1030,0
3545251464,-7749,-424,-13390,229,340,993,546,35,-1055,0
3545271453,-6920,-913,-12599,206,346,701,528,35,-1042,0
3545291442,-7229,-664,-12679,284,-105,189,546,17,-1067,0
3545311431,-7680,-974,-13443,530,-346,-456,558,29,-1092,0
3545331420,-9090,-2242,-14241,687,-445,-538,546,5,-1044,0
3545351409,-8465,-1843,-15028,1291,-459,-639,546,23,-1030,0
3545371398,-7260,-2005,-14454,1838,-527,-862,558,17,-1030,0
3545391387,-7291,-3536,-13724,1520,-1014,-871,552,5,-1042,0
3545411376,-7326,-5294,-15015,3359,-4055,-1337,558,-12,-969,0
3545431365,-11325,-9081,-8246,3266,-6166,-698,558,-24,-896,0
3545451354,-11302,-6639,-10896,-247,-695,154,546,-36,-846,0
3545471343,-11205,-5661,-10809,410,-1138,269,558,-12,-846,0
3545491333,-10425,-5726,-9929,388,-1016,202,558,-18,-821,0
3545511322,-10307,-5707,-10002,-334,-631,62,564,-42,-773,0
3545531311,-11483,-6563,-9996,-937,-903,-473,546,-36,-784,0
3545551300,-11377,-5638,-9548,-1364,-619,-744,570,-24,-761,0
3545571289,-11629,-4995,-9395,-1081,-474,-689,564,-30,-773,0
3545591278,-11745,-5813,-9034,-284,-518,-804,564,-60,-761,0
3545611267,-10262,-6259,-9213,-81,-150,-1110,558,-36,-773,0
3545631256,-10566,-5785,-10330,-355,208,-990,552,-72,-748,0
3545651245,-11640,-5609,-11503,-365,634,-798,552,-66,-798,0
3545671234,-11545,-5606,-11862,-181,1538,-594,558,-72,-784,0
3545691223,-10972,-5888,-9892,281,2092,-320,564,-66,-809,0
3545711212,-8909,-7031,-9866,842,1148,42,546,-78,-846,0
3545731201,-10036,-7574,-10799,1295,995,-261,552,-101,-821,0
3545751190,-10277,-6746,-10991,538,61,-261,540,-78,-882,0
3545771179,-10233,-6685,-11686,307,-425,-150,575,-96,-821,0
3545791168,-10379,-7090,-11661,94,269,-249,558,-84,-821,0
3545811157,-9484,-7280,-11967,-384,783,-309,552,-107,-871,0
3545831146,-9305,-7458,-8679,-693,846,-323,558,-107,-871,0
3545851135,-9130,-6696,-11045,-257,-408,-478,546,-96,-882,0
3545871124,-9125,-7277,-11513,-294,-372,-301,575,-96,-896,0
3545891113,-8660,-6652,-10476,-65,-585,-293,564,-96,-846,0
3545911102,-8875,-6540,-10487,-598,-742,-53,564,-113,-859,0
3545931091,-9793,-7257,-12129,-592,-1608,111,540,-107,-846,0
3545951080,-10088,-7348,-13862,-629,-1569,158,558,-96,-798,0
3545971069,-9229,-6627,-12627,-1004,-391,138,558,-90,-798,0
3545991058,-8869,-4742,-11136,-1105,581,415,552,-107,-809,0
3546011047,-13062,-5219,-5596,-426,289,732,552,-90,-834,0
3546031036,-14260,-6568,-9892,1011,-571,136,546,-96,-809,0
3546051025,-11795,-6429,-14124,260,97,-809,564,-90,-809,0
3546071014,-9817,-6339,-13821,-42,302,-1010,546,-96,-846,0
3546091003,-10463,-8065,-14516,610,-320,34,540,-101,-798,0
3546110992,-13359,-9078,-11379,7,271,1462,546,-90,-748,0
3546130981,-10256,-4206,-8763,-1073,127,631,552,-78,-809,0
3546150970,-9765,-5079,-8209,-162,-992,-168,546,-96,-834,0
3546170959,-10613,-5563,-7839,187,-1573,37,546,-96,-821,0
3546190948,-11133,-4116,-10134,-549,-1568,80,558,-101,-759,0
3546210937,-10501,-6720,-10784,-714,-1399,171,558,-72,-748,0
3546230926,-11016,-5947,-10089,-515,-1233,-12,558,-96,-723,0
3546250915,-12054,-4487,-10232,-704,-1188,-210,540,-84,-711,0
3546270904,-12737,-5377,-10098,-947,-851,-486,546,-78,-700,0
3546290893,-11757,-5084,-9144,-999,-954,-497,558,-113,-686,0
3546310882,-12122,-5517,-8262,-687,-1208,-579,546,-119,-650,0
3546330871,-12189,-4816,-7792,-362,-1040,-964,540,-113,-638,0
3546350860,-12175,-5339,-7227,161,-925,-849,522,-119,-661,0
3546370849,-12816,-5860,-8375,467,-843,-541,528,-96,-600,0
3546390838,-13331,-5600,-8910,340,-264,-292,522,-131,-625,0
3546410827,-14392,-8027,-9585,760,406,-422,516,-143,-613,0
3546430816,-13483,-7840,-8231,1236,1278,114,522,-137,-638,0
3546450805,-11662,-4582,-7718,742,1425,398,546,-113,-613,0
3546470794,-12449,-4636,-7629,1135,482,439,540,-119,-600,0
3546490783,-8988,-5260,-5416,790,913,61,540,-131,-650,0
3546510772,-8365,-5933,-5923,160,890,43,534,-143,-650,0
3546530761,-10212,-7033,-7752,262,629,-44,528,-119,-700,0
3546550750,-12495,-7809,-9843,269,414,-307,540,-125,-661,0
3546570739,-13326,-9559,-11101,78,-78,-361,552,-125,-661,0
3546590728,-13466,-10598,-11043,-253,-585,39,534,-125,-675,0
3546610717,-14554,-9376,-10416,-292,-835,471,546,-125,-686,0
3546630706,-14272,-7466,-9456,-109,-829,635,534,-113,-675,0
3546650695,-13367,-7601,-8648,238,-657,841,540,-101,-661,0
3546670684,-13177,-6360,-8231,426,-299,631,540,-90,-650,0
3546690673,-12156,-5983,-8513,504,69,315,546,-96,-625,0
3546710662,-10811,-5038,-7316,1123,868,41,540,-84,-638,0
3546730651,-9896,-4380,-5800,643,1505,206,546,-90,-661,0
3546750640,-8772,-3792,-7298,-396,1749,530,546,-107,-661,0
3546770629,-10123,-3436,-9547,-1130,1894,842,564,-84,-723,0
3546790618,-11910,-3300,-10214,-962,1909,766,570,-78,-736,0
3546810607,-13878,-3952,-12248,-318,1330,143,564,-72,-761,0
3546830596,-12306,-3833,-10876,184,625,-416,564,-84,-809,0
3546850585,-9658,-4696,-8925,447,216,-554,564,-84,-773,0
3546870574,-9325,-6236,-9085,235,228,-424,564,-90,-798,0
3546890563,-10761,-7004,-10064,413,502,-470,564,-101,-798,0
3546910552,-11980,-6592,-11328,611,325,-625,570,-101,-821,0
3546930541,-10912,-7019,-10154,479,-149,-599,558,-90,-809,0
3546950531,-10894,-7229,-9617,578,-164,-673,558,-96,-784,0
3546970520,-11632,-7549,-10816,558,-117,-788,552,-101,-798,0
3546990509,-12070,-8259,-12254,391,-307,-886,552,-107,-773,0
3547010498,-12942,-8874,-11080,145,-870,-879,564,-113,-773,0
3547030487,-10127,-8760,-8832,86,-1045,-778,546,-113,-748,0
3547050476,-9159,-8424,-8179,-44,-1153,-355,546,-90,-711,0
3547070465,-9793,-8262,-8879,-111,-909,-213,546,-125,-773,0
3547090454,-10289,-8248,-9451,-22,-391,-475,546,-143,-700,0
3547110443,-10419,-8987,-9557,210,-125,-780,528,-131,-711,0
3547130432,-10291,-8575,-9317,371,-262,-897,540,-155,-700,0
3547150421,-10149,-8471,-8913,367,-381,-1026,534,-173,-711,0
3547170410,-9877,-8555,-7875,207,-159,-953,534,-149,-700,0
3547190399,-9554,-9635,-8539,-137,311,-679,552,-167,-675,0
3547210388,-11226,-11512,-9646,-165,9,-141,534,-185,-723,0
3547230377,-12527,-10742,-11185,490,-1543,51,528,-173,-650,0
3547250366,-10688,-9116,-8172,444,-432,-345,528,-167,-700,0
3547270355,-10486,-8800,-6996,496,-520,-361,522,-179,-661,0
3547290344,-11102,-9309,-7875,374,-814,-281,540,-161,-638,0
3547310333,-10709,-9471,-8191,68,-503,-304,516,-173,-638,0
3547330322,-10324,-9127,-8170,66,-50,-349,516,-167,-638,0
3547350311,-10579,-8933,-8399,76,525,-380,510,-185,-675,0
3547370300,-10324,-8441,-8024,60,654,-443,522,-202,-661,0
3547390289,-9301,-9180,-7881,51,355,-512,516,-202,-650,0
3547410278,-9103,-10094,-8025,136,-22,-234,510,-196,-650,0
3547430267,-8824,-9654,-7600,110,71,-205,504,-214,-700,0
3547450256,-8854,-9553,-7458,-105,156,-333,522,-196,-675,0
3547470245,-8465,-10330,-7409,-351,100,-250,516,-196,-686,0
3547490234,-8303,-10028,-7364,-226,38,-90,528,-196,-638,0
3547510223,-8399,-10223,-7168,9,128,-40,528,-208,-686,0
3547530212,-8449,-10054,-7075,-83,212,-72,516,-202,-650,0
3547550201,-8950,-9503,-7431,17,176,-104,516,-191,-675,0
3547570190,-9635,-9329,-7061,114,232,-342,528,-214,-675,0
3547590179,-10025,-9544,-6897,-23,137,-543,522,-208,-711,0
3547610168,-11086,-8057,-8359,-83,-9,-466,516,-196,-700,0
3547630157,-9156,-12381,-9307,-276,-268,-543,510,-208,-675,0
3547650146,-8019,-14358,-8834,-400,-321,-377,516,-232,-700,0
3547670135,-8593,-13021,-8151,123,87,-190,510,-220,-661,0
3547690124,-9119,-11995,-7884,78,326,-133,516,-220,-675,0
3547710113,-9230,-12001,-8083,-134,250,-129,498,-232,-686,0
3547730102,-9819,-12467,-8374,-318,90,-288,504,-220,-700,0
3547750091,-9410,-12256,-8603,-239,150,-374,504,-208,-686,0
3547770080,-8995,-11178,-8673,-71,187,-286,498,-220,-723,0
3547790069,-8613,-10427,-8266,-16,295,-241,510,-232,-723,0
3547810058,-8410,-10620,-8040,-39,334,-204,492,-232,-736,0
3547830047,-8360,-11184,-8221,-12,415,-145,492,-232,-711,0
3547850036,-8319,-11653,-8470,6,556,-161,492,-238,-700,0
3547870025,-8038,-11571,-7894,-47,668,-184,516,-262,-748,0
3547890014,-8063,-11347,-7707,-190,427,-177,516,-250,-748,0
3547910003,-7673,-11241,-9023,-382,144,40,504,-238,-748,0
3547929992,-8011,-10146,-8897,-526,163,328,504,-232,-761,0
3547949981,-8048,-10418,-8348,-591,-8,837,498,-238,-798,0
3547969970,-7907,-11238,-8905,-429,-147,895,516,-238,-761,0
3547989959,-8260,-10206,-9813,-297,91,699,510,-232,-798,0
3548009948,-8164,-10054,-9932,61,307,782,504,-238,-773,0
3548029937,-7563,-10724,-8876,680,509,804,504,-208,-773,0
3548049926,-8298,-10755,-8071,478,275,905,522,-196,-773,0
3548069915,-9334,-10004,-8456,31,-277,910,546,-185,-798,0
3548089904,-9827,-10047,-8935,-147,-671,756,540,-208,-784,0
3548109893,-9440,-9903,-8929,246,-445,748,540,-191,-784,0
3548129882,-9931,-9588,-7897,302,-455,746,528,-185,-736,0
3548149871,-9843,-9955,-7945,19,-965,599,528,-185,-736,0
3548169860,-9476,-10483,-8169,207,-1250,248,546,-155,-748,0
3548189849,-9626,-9508,-8562,220,-1330,-355,546,-161,-723,0
3548209838,-9417,-9681,-8047,-214,-1064,-521,540,-196,-700,0
3548229827,-8207,-9071,-6873,-424,-594,-647,522,-191,-723,0
3548249816,-10040,-10569,-8960,-880,-741,142,528,-185,-761,0
3548269805,-11423,-11958,-10609,-561,40,-608,522,-196,-736,0
3548289794,-11599,-9687,-9084,172,1179,-1671,528,-202,-700,0
3548309783,-9838,-8566,-8171,-34,834,-1124,522,-208,-736,0
3548329772,-8991,-9780,-9142,-123,456,-483,504,-226,-761,0
3548349761,-8563,-9045,-8347,304,835,-381,522,-238,-761,0
3548369750,-8694,-9153,-9088,367,437,-59,534,-232,-784,0
3548389739,-9153,-9878,-9324,186,2,320,540,-226,-798,0
3548409729,-8817,-10028,-9091,181,5,410,522,-226,-821,0
3548429718,-8831,-10111,-9159,262,97,460,510,-214,-809,0
3548449707,-9290,-10698,-9399,310,-40,502,522,-208,-784,0
3548469696,-9886,-10982,-9243,397,-63,424,534,-214,-773,0
3548489685,-10163,-10747,-8849,391,-109,347,540,-202,-773,0
3548509674,-9675,-10368,-8910,321,-228,294,534,-202,-761,0
3548529663,-9280,-9974,-8671,202,-215,229,534,-202,-798,0
3548549652,-8889,-9934,-8381,259,-23,187,534,-208,-809,0
3548569641,-8900,-10257,-8689,601,161,111,564,-208,-784,0
3548589630,-8880,-10055,-8952,820,482,46,522,-208,-773,0
3548609619,-8804,-9832,-8690,770,610,24,534,-191,-773,0
3548629608,-8850,-9844,-8481,696,412,-13,528,-196,-821,0
3548649597,-8965,-10340,-8675,616,33,6,534,-202,-798,0
3548669586,-9495,-10853,-8204,848,259,-38,546,-220,-798,0
3548689575,-9734,-10621,-7591,1015,279,-175,552,-196,-784,0
3548709564,-9771,-10789,-7735,870,216,30,552,-185,-773,0
3548729553,-10637,-10771,-7469,833,490,220,522,-214,-784,0
3548749542,-10217,-10935,-7639,628,756,358,534,-202,-784,0
3548769531,-9357,-11161,-8040,426,780,448,564,-196,-821,0
3548789520,-9158,-11045,-8284,340,748,386,570,-214,-809,0
3548809509,-9206,-10964,-8437,165,623,386,558,-191,-834,0
3548829498,-8906,-10651,-8080,-45,593,431,546,-191,-834,0
3548849487,-8613,-10946,-8786,-137,786,397,564,-167,-859,0
3548869476,-9508,-10694,-8597,-386,880,250,558,-208,-871,0
3548889465,-10027,-10206,-9007,-550,699,29,564,-167,-859,0
3548909454,-8889,-10092,-9855,-396,884,-61,564,-179,-907,0
3548929443,-8994,-9856,-9838,-208,1213,88,558,-185,-944,0
3548949432,-9153,-8846,-9116,35,1194,310,570,-191,-932,0
3548969421,-9475,-8592,-8625,310,612,499,570,-196,-969,0
3548989410,-9399,-8865,-9196,271,-14,616,575,-179,-969,0
3549009399,-9716,-8906,-8988,-1,-631,560,564,-167,-982,0
3549029388,-10204,-8979,-9384,290,-1318,241,558,-161,-919,0
3549049377,-9435,-8616,-9129,399,-1237,-69,570,-173,-896,0
3549069366,-8658,-8782,-9160,387,-752,-134,587,-173,-896,0
3549089355,-9353,-9076,-8699,418,-189,-54,570,-167,-871,0
3549109344,-10045,-9243,-7881,584,-14,62,564,-149,-896,0
3549129333,-9816,-9560,-6631,606,-205,186,581,-173,-859,0
3549149322,-8694,-10456,-6987,642,-485,373,570,-179,-859,0
3549169311,-8683,-10757,-7322,632,-376,451,570,-179,-834,0
3549189300,-8366,-10233,-6726,465,79,396,570,-167,-871,0
3549209289,-10120,-9447,-6468,186,273,479,570,-143,-896,0
3549229278,-11951,-8930,-6748,-49,294,406,570,-149,-821,0
3549249267,-11697,-9734,-7644,-154,383,192,564,-161,-871,0
3549269256,-10354,-10103,-7904,-209,425,129,587,-143,-859,0
3549289245,-9894,-9739,-8146,-174,524,249,587,-143,-871,0
3549309234,-10869,-8977,-7359,-255,900,290,581,-137,-896,0
3549329223,-11726,-7942,-6814,-411,790,261,587,-155,-907,0
3549349212,-11332,-8181,-7784,-602,509,232,581,-125,-907,0
3549369201,-10227,-8936,-8622,-521,116,94,581,-107,-896,0
3549389190,-9659,-8937,-8478,-494,-36,-87,581,-131,-919,0
3549409179,-9628,-8490,-7912,-439,-69,-166,587,-137,-944,0
3549429168,-9748,-8189,-8243,-411,-327,-97,575,-137,-944,0
3549449157,-9920,-8504,-8870,-537,-429,-51,570,-143,-907,0
3549469146,-9870,-9649,-9790,-700,-412,-20,570,-131,-896,0
3549489135,-9953,-10869,-10503,-636,-455,73,575,-125,-896,0
3549509124,-9604,-11025,-9684,-458,-441,26,575,-137,-932,0
3549529113,-8995,-10543,-8889,-404,-397,-74,564,-119,-907,0
3549549102,-8946,-9833,-7958,-369,-303,-142,564,-125,-907,0
3549569091,-9196,-9353,-7658,-317,-211,-265,581,-125,-896,0
3549589080,-8808,-9425,-7796,-258,-96,-503,581,-131,-882,0
3549609069,-8085,-9469,-7820,-260,49,-678,575,-143,-896,0
3549629058,-7895,-9373,-8140,-338,74,-713,558,-155,-919,0
3549649047,-8982,-9445,-8828,-93,-325,-764,564,-143,-907,0
3549669036,-10333,-9697,-9434,243,-985,-858,575,-167,-896,0
3549689025,-10392,-9825,-9674,11,-997,-785,558,-173,-846,0
3549709014,-9690,-10021,-10117,-522,-574,-591,546,-155,-846,0
3549729003,-9027,-10037,-9899,-906,-57,-343,546,-161,-846,0
3549748992,-8630,-10421,-9684,-983,286,-160,546,-161,-882,0
3549768981,-9135,-9677,-9765,-979,684,-99,564,-155,-871,0
3549788970,-10269,-9499,-9592,-862,659,62,558,-167,-932,0
3549808959,-10453,-10007,-9525,-625,522,143,552,-155,-921,0
3549828948,-9914,-10692,-10058,-321,469,119,540,-161,-921,0
3549848937,-9928,-10888,-9846,-104,546,49,534,-155,-932,0
3549868927,-9824,-10461,-9283,-64,434,-24,552,-167,-944,0
3549888916,-9957,-9775,-8757,-4,166,-68,552,-161,-944,0
3549908905,-10627,-9404,-8940,45,-54,-141,540,-167,-932,0
3549928894,-10277,-9538,-9243,-42,-107,-256,534,-161,-944,0
3549948883,-9147,-9884,-9596,-40,-71,-332,546,-179,-907,0
3549968872,-8944,-10176,-9684,52,-32,-324,540,-161,-932,0
3549988861,-8825,-9857,-9666,31,-111,-293,522,-161,-919,0
3550008850,-8400,-9404,-9321,-81,-97,-177,528,-167,-932,0
3550028839,-7600,-9318,-9223,-199,-74,-42,534,-173,-907,0
3550048828,-7565,-9358,-9234,-239,-84,67,540,-185,-907,0
3550068817,-7770,-9618,-9936,-230,-36,135,546,-161,-919,0
3550088806,-8475,-9699,-10320,-199,190,139,540,-167,-932,0
3550108795,-9241,-9229,-10441,-124,306,91,528,-167,-982,0
3550128784,-9889,-9011,-10501,-28,339,-11,528,-167,-969,0
3550148773,-9503,-8613,-10257,-57,386,-114,534,-173,-932,0
3550168762,-9137,-8160,-9861,-95,278,-30,540,-161,-944,0
3550188751,-9369,-8383,-10293,-90,19,24,540,-179,-957,0
3550208740,-9738,-8681,-10734,-67,-115,18,534,-173,-932,0
3550228729,-9808,-8998,-10684,-61,-83,7,522,-173,-944,0
3550248718,-9338,-9624,-10834,-23,-89,26,534,-155,-932,0
3550268707,-8892,-10034,-10877,25,-165,59,534,-173,-932,0
3550288696,-8774,-9810,-10454,59,-125,48,546,-161,-982,0
3550308685,-8574,-9316,-9951,65,-46,35,534,-179,-907,0
3550328674,-8422,-8954,-9698,15,16,41,528,-155,-944,0
3550348663,-8544,-8679,-9431,-46,114,15,546,-173,-944,0
3550368652,-8520,-8502,-10045,33,177,-72,534,-155,-921,0
3550388641,-9553,-10834,-11644,798,195,-197,540,-155,-907,0
3550408630,-8362,-9381,-9899,502,274,-285,528,-179,-919,0
3550428619,-7726,-8704,-8944,290,146,-212,522,-185,-921,0
3550448608,-8007,-9184,-9343,201,-13,-37,528,-155,-957,0
3550468597,-8464,-9513,-9714,29,-124,79,534,-173,-932,0
3550488586,-9130,-9960,-10625,26,-165,74,534,-196,-932,0
3550508575,-9626,-9883,-10751,142,-101,-11,546,-161,-921,0
3550528564,-9123,-9348,-10059,190,-47,-66,528,-155,-907,0
3550548553,-8783,-9224,-9714,149,-8,-70,528,-173,-932,0
3550568542,-8751,-9250,-9676,92,4,-62,546,-179,-919,0
3550588531,-8691,-9261,-9582,20,-16,-66,534,-185,-921,0
3550608520,-8211,-9443,-9598,-9,-72,-53,534,-179,-896,0
3550628509,-8209,-9527,-9528,6,-58,-19,534,-173,-944,0
3550648498,-8568,-9343,-9405,-3,-40,-17,546,-155,-907,0
3550668487,-8630,-9531,-9607,-24,-17,-66,528,-173,-932,0
3550688476,-8501,-9858,-9901,-25,23,-99,540,-185,-907,0
3550708465,-8540,-9997,-10029,-21,78,-114,522,-167,-896,0
3550728454,-8489,-9797,-9949,14,78,-88,522,-161,-921,0
3550748443,-8555,-9536,-9928,30,19,-38,534,-185,-944,0
3550768432,-8424,-9397,-9740,7,-28,-14,522,-167,-944,0
3550788421,-8446,-9288,-9533,-28,-61,33,558,-185,-907,0
3550808410,-8554,-9599,-9865,-60,-93,66,540,-179,-907,0
3550828399,-8913,-9991,-10318,-28,-84,87,534,-196,-896,0
3550848388,-8784,-9855,-9971,17,-75,86,534,-208,-921,0
3550868377,-8572,-9475,-9540,-7,-76,48,522,-167,-932,0
3550888366,-8663,-9345,-9324,-19,-90,59,552,-185,-921,0
3550908355,-8580,-9403,-9495,-58,-16,44,528,-167,-907,0
3550928344,-8578,-9667,-9777,-123,43,47,534,-173,-921,0
3550948333,-8513,-9969,-9913,-67,-2,51,528,-161,-907,0
3550968322,-8615,-10264,-10413,59,-76,47,534,-173,-921,0
3550988311,-9346,-10130,-10693,158,-29,31,546,-173,-907,0
3551008300,-9611,-9571,-9985,234,64,-20,546,-167,-932,0
3551028289,-9326,-9187,-9547,276,0,-46,528,-179,-896,0
3551048278,-9287,-9134,-9283,276,-77,-17,516,-167,-919,0
3551068267,-9343,-9464,-9504,300,-119,-35,534,-167,-921,0
3551088256,-9004,-9741,-9216,378,-116,-153,540,-185,-932,0
3551108245,-8346,-9692,-8768,364,-209,-163,534,-173,-896,0
3551128234,-8113,-9808,-8550,260,-280,-86,528,-191,-871,0
3551148223,-8066,-9996,-8564,151,-191,-44,534,-167,-859,0
3551168212,-8320,-10293,-9004,35,-103,9,534,-173,-871,0
3551188201,-8812,-10578,-9847,20,49,3,546,-167,-859,0
3551208190,-8763,-10305,-9904,98,312,-126,528,-173,-921,0
3551228179,-8643,-9597,-9237,119,375,-115,540,-208,-907,0
3551248168,-8983,-9150,-9025,47,247,47,546,-173,-907,0
3551268157,-9278,-9190,-9169,-30,191,109,552,-185,-896,0
3551288146,-8937,-9644,-9324,-65,136,58,540,-191,-907,0
3551308135,-8759,-10161,-9498,-83,39,27,534,-179,-882,0
3551328125,-8673,-10293,-9425,-68,-2,-13,516,-179,-871,0
3551348114,-8516,-10199,-9115,-63,-15,5,528,-185,-871,0
3551368103,-8746,-10301,-9247,-87,-53,79,534,-185,-859,0
3551388092,-9124,-10336,-9545,-104,-36,81,540,-185,-882,0
3551408081,-8886,-10202,-9374,-65,26,20,534,-173,-882,0
3551428070,-8414,-9892,-9010,-26,69,-40,534,-173,-846,0
3551448059,-8509,-9640,-9008,-56,83,-28,528,-179,-896,0
3551468048,-8638,-9477,-9067,-71,95,-42,552,-196,-919,0
3551488037,-8604,-9385,-9253,-86,73,-33,552,-179,-921,0
3551508026,-8217,-9964,-9555,-158,77,-1,546,-185,-896,0
3551528015,-8152,-10437,-10051,-171,5,39,528,-196,-896,0
3551548004,-8679,-10273,-10002,-88,-9,87,540,-179,-882,0
3551567993,-8557,-10037,-9700,-6,30,55,552,-173,-921,0
3551587982,-8602,-9735,-9546,28,2,64,552,-161,-907,0
3551607971,-9245,-9585,-9574,27,29,71,540,-185,-907,0
3551627960,-9076,-9685,-9722,8,60,15,522,-185,-882,0
3551647949,-8585,-9770,-9740,28,25,12,546,-173,-921,0
3551667938,-8627,-9637,-9429,38,-21,30,540,-167,-907,0
3551687927,-8861,-9529,-9327,26,-37,25,540,-179,-907,0
3551707916,-8860,-9657,-9597,10,-26,21,516,-173,-896,0
3551727905,-9001,-9686,-9597,-20,17,16,528,-173,-921,0
3551747894,-8703,-9730,-9462,-22,35,-30,540,-173,-921,0
3551767883,-8477,-9914,-9362,21,-14,-11,534,-167,-896,0
3551787872,-8607,-9834,-9417,9,-54,35,540,-173,-896,0
3551807861,-8784,-9766,-9365,-38,-10,46,534,-161,-921,0
3551827850,-8742,-9891,-9599,-45,3,39,540,-179,-896,0
3551847839,-9108,-9937,-9747,-43,14,64,540,-173,-944,0
3551867828,-9246,-10145,-9814,-39,14,21,552,-161,-896,0
3551887817,-8739,-10026,-9872,19,23,-44,552,-161,-907,0
3551907806,-8521,-9700,-9545,60,20,-13,540,-173,-882,0
3551927795,-9135,-9676,-9755,49,9,31,546,-167,-896,0
3551947784,-9643,-9742,-10105,35,24,9,546,-161,-907,0
3551967773,-9477,-9656,-10061,47,4,-41,534,-167,-896,0
3551987762,-8889,-9660,-10033,33,11,-65,552,-161,-882,0
3552007751,-9246,-9781,-10430,7,-56,23,522,-173,-907,0
3552027740,-10792,-9350,-10605,30,-138,62,522,-185,-907,0
3552047729,-9950,-9331,-11110,48,-184,-25,546,-131,-896,0
3552067718,-9950,-9331,-11110,63,-193,-50,522,-173,-882,0
3552087707,-9589,-9595,-11652,63,-193,-50,522,-185,-871,0
3552107696,-9637,-9387,-11429,161,-158,-88,522,-185,-871,0
3552127685,-8635,-8849,-10284,260,-204,-63,528,-185,-882,0
3552147674,-8654,-8384,-9469,210,-220,73,540,-173,-871,0
3552167663,-9324,-8104,-9103,116,-170,79,552,-185,-834,0
3552187652,-9749,-8242,-9403,70,-154,29,546,-179,-907,0
3552207641,-10678,-8696,-9764,24,-181,-22,558,-191,-834,0
3552227630,-10387,-9869,-10459,-28,-230,-98,558,-179,-859,0
3552247619,-10549,-10605,-10551,12,10,-314,552,-191,-834,0
3552267608,-9245,-10680,-9240,-52,-11,-354,534,-179,-846,0
3552287597,-7956,-10591,-7212,-117,-30,-298,552,-191,-834,0
3552307586,-7456,-10356,-6241,-190,-45,-129,558,-179,-834,0
3552327575,-9051,-9343,-6095,202,-54,41,534,-167,-834,0
3552347564,-9764,-8389,-6029,-208,-237,225,540,-179,-823,0
3552367553,-9644,-8668,-7086,-607,-300,469,552,-179,-834,0
3552387542,-10896,-9252,-8093,-252,-284,537,558,-155,-798,0
3552407531,-11879,-7845,-6942,-178,-264,372,558,-173,-823,0
3552427520,-10910,-6679,-5397,-350,-321,216,546,-208,-809,0
3552447509,-9006,-6659,-5230,-547,-373,196,540,-167,-834,0
3552467498,-7893,-6591,-5372,-769,-282,429,552,-167,-859,0
3552487487,-7827,-6504,-6710,-1245,-129,807,546,-167,-809,0
3552507476,-11834,-8364,-10689,-1359,-503,1185,564,-155,-834,0
3552527465,-14045,-10704,-13692,-1119,-558,932,558,-149,-821,0
3552547454,-12781,-11352,-14383,-583,-452,261,546,-131,-809,0
3552567443,-10697,-9651,-12478,-34,-296,-258,552,-143,-821,0
3552587432,-8353,-7106,-9777,191,-175,-382,552,-143,-798,0
3552607421,-7707,-5950,-8050,11,-55,-176,552,-125,-834,0
3552627410,-8713,-6130,-8127,-337,-12,62,552,-125,-809,0
3552647399,-10399,-7615,-10086,-554,-71,204,546,-155,-798,0
3552667388,-10254,-8048,-10614,-492,-7,94,540,-131,-846,0
3552687377,-9650,-7209,-9862,-405,-49,36,552,-125,-821,0
3552707366,-10526,-6113,-9382,-415,-178,91,540,-119,-809,0
3552727355,-10360,-5480,-9063,-517,-236,125,546,-137,-834,0
3552747344,-10881,-5705,-9751,-681,-310,249,558,-149,-798,0
3552767333,-11707,-6537,-10524,-794,-218,230,558,-137,-798,0
3552787322,-12302,-7557,-10416,-730,-151,46,558,-107,-834,0
3552807312,-12756,-7246,-9533,-633,-168,-188,564,-155,-846,0
3552827301,-10750,-6933,-8853,-679,-139,-265,552,-143,-821,0
3552847290,-9908,-6838,-8746,-936,60,-14,552,-137,-834,0
3552867279,-12409,-7035,-9667,-1235,236,359,570,-131,-834,0
3552887268,-13668,-6717,-10343,-1478,194,552,558,-131,-809,0
3552907257,-13110,-4912,-9558,-1710,-76,668,552,-125,-821,0
3552927246,-11678,-2706,-8376,-2052,-152,881,558,-107,-871,0
3552947235,-11833,-1536,-8788,-2536,-7,1153,552,-101,-834,0
3552967224,-14013,-2023,-10527,-3082,16,1255,558,-84,-871,0
3552987213,-16613,-6437,-15447,-3153,41,545,558,-90,-871,0
3553007202,-14552,-8500,-18035,-2353,298,-817,570,-96,-871,0
3553027191,-11750,-4790,-14277,-1493,39,-1298,564,-107,-896,0
3553047180,-11409,161,-10109,-1330,-368,-1099,540,-113,-896,0
3553067169,-11990,1932,-9467,-1580,-459,-711,564,-119,-907,0
3553087158,-11856,1648,-10494,-1832,-545,-571,570,-125,-882,0
3553107147,-10958,-856,-13481,-1442,-812,-847,564,-131,-882,0
3553127136,-9263,-2467,-14305,-501,-361,-1569,552,-149,-896,0
3553147125,-8828,-770,-12418,424,204,-2068,558,-143,-859,0
3553167114,-8045,698,-10315,759,548,-2169,558,-173,-896,0
3553187103,-7032,1686,-10076,697,452,-1887,552,-191,-882,0
3553207092,-7096,2911,-12411,597,648,-1206,546,-202,-896,0
3553227081,-7805,622,-12432,464,-266,-948,534,-208,-896,0
3553247070,-7941,1,-7710,259,1491,-401,528,-226,-907,0
3553267059,-13194,556,-7711,-215,428,491,552,-208,-896,0
3553287048,-13076,-3070,-10951,-761,-299,400,540,-202,-907,0
3553307037,-12299,-6225,-13571,-698,337,133,546,-202,-969,0
3553327026,-11268,-5891,-13381,-526,960,-136,534,-202,-944,0
3553347015,-9702,-4497,-11868,-543,860,120,540,-220,-944,0
3553367004,-13514,-3143,-12734,-969,-438,868,534,-208,-957,0
3553386993,-15515,-1622,-14739,-1330,-1541,1009,528,-191,-969,0
3553406982,-14557,892,-11770,-1017,-1571,603,540,-196,-957,0
3553426971,-13160,718,-11169,-832,-1210,456,546,-167,-957,0
3553446960,-11823,93,-9478,-960,-537,856,534,-167,-932,0
3553466949,-9950,1363,-8046,-2181,-504,1472,570,-161,-921,0
3553486938,-13225,457,-11040,-3111,-1261,2172,552,-143,-944,0
3553506927,-13659,-94,-13774,-2668,-1853,2136,558,-137,-871,0
3553526916,-13527,1521,-13518,-2238,-1151,1672,564,-107,-882,0
3553546905,-13380,4401,-10240,-1851,147,927,564,-96,-882,0
3553566894,-12463,7031,-3238,-1077,-487,686,564,-78,-871,0
3553586883,-15475,5987,-11034,-1030,-2004,1197,564,-84,-846,0
3553606872,-14212,5144,-9710,-1345,-1655,1141,564,-90,-834,0
3553626861,-12744,5732,-7326,-1130,-448,686,581,-66,-809,0
3553646850,-10051,5137,-5838,-1089,377,659,564,-60,-823,0
3553666839,-12382,5088,-7365,-1667,36,1352,581,-54,-809,0
3553686828,-14008,6712,-6527,-2108,-109,1811,581,-30,-809,0
3553706817,-13354,8985,-5713,-1114,-50,1056,564,-30,-821,0
3553726806,-11864,10383,-6364,199,147,-9,570,-12,-821,0
3553746795,-12407,10853,-7441,499,314,-482,570,-42,-846,0
3553766784,-12325,9610,-7030,215,684,-471,575,-18,-823,0
3553786773,-12683,9415,-7292,118,598,-407,581,-36,-809,0
3553806762,-12177,8231,-7158,375,307,-362,570,-18,-859,0
3553826751,-10035,6886,-6600,427,97,-167,587,-24,-846,0
3553846740,-9843,5408,-7391,658,-235,239,570,-36,-846,0
3553866729,-11797,4686,-8920,535,4,-19,575,-36,-834,0
3553886718,-15093,7350,-7030,2962,-653,-959,575,-54,-859,0
3553906707,-13633,7691,-8833,4520,448,-1003,570,-42,-859,0
3553926696,-12138,5198,-11674,4172,1262,-833,575,-42,-882,0
3553946685,-11493,8174,-9901,2509,1816,-648,581,-60,-896,0
3553966674,-13072,8374,-8976,1305,2703,-41,581,-48,-957,0
3553986663,-12512,6450,-10800,845,2179,220,575,-84,-957,0
3554006652,-11865,6158,-10833,258,1975,286,575,-66,-1055,0
3554026641,-12522,4052,-11556,151,1644,193,575,-60,-1067,0
3554046630,-12201,4265,-15436,-839,3441,821,558,-72,-1044,0
3554066619,-5362,3908,-9873,-903,5562,1912,552,-54,-1190,0
3554086608,-1215,2283,-11419,281,3272,1627,546,-42,-1215,0
3554106597,-3444,3947,-13054,470,1535,1245,552,-30,-1215,0
3554126586,-5652,5783,-13031,133,364,777,528,-24,-1251,0
3554146575,-4676,5714,-13696,2,-16,955,522,-24,-1313,0
3554166564,-3736,7160,-12995,-398,85,1262,510,0,-1276,0
3554186553,-4972,6114,-13934,-692,529,1774,516,17,-1228,0
3554206542,-4559,4107,-13458,-187,1422,1163,528,35,-1301,0
3554226531,-3548,7243,-12461,1268,415,-595,504,29,-1288,0
3554246520,-4590,5275,-14971,835,-824,-1431,498,17,-1251,0
3554266510,-4839,3278,-15329,-356,76,-841,516,-12,-1276,0
3554286499,-3629,2777,-14709,-726,778,-84,516,11,-1301,0
3554306488,-4428,5064,-12861,-1202,-214,49,510,5,-1276,0
3554326477,-6182,5332,-18608,-2134,-806,-298,516,11,-1276,0
3554346466,-5904,4449,-18611,-1791,-1194,-419,516,11,-1203,0
3554366455,-5757,7136,-10403,-1223,-1586,-50,522,29,-1228,0
3554386444,-8028,7775,-13269,-1127,-1532,-100,540,35,-1190,0
3554406433,-6483,8369,-12382,-1059,-443,-460,552,29,-1203,0
3554426422,-5556,9394,-12896,-589,-13,-634,552,35,-1203,0
3554446411,-5831,11048,-15118,467,-555,-909,528,23,-1178,0
3554466400,-6063,4618,-11704,1470,-1614,-1275,558,-6,-1153,0
3554486389,-7874,6360,-13701,156,-567,-467,570,29,-1153,0
3554506378,-10672,9323,-12796,1030,1293,-330,540,-12,-1153,0
3554526367,-7382,6773,-13679,2217,1715,-970,552,-18,-1178,0
3554546356,-8872,6570,-15472,2157,-309,-1299,540,-30,-1153,0
3554566345,-10075,4580,-13703,2365,-683,-1116,546,-36,-1178,0
3554586334,-9241,1397,-10440,1538,79,-914,546,-54,-1190,0
3554606323,-9573,-121,-11892,829,643,-1099,540,-84,-1190,0
3554626312,-7519,2469,-13449,718,1148,-1114,546,-84,-1203,0
3554646301,-1985,519,-12424,867,1664,-799,540,-101,-1226,0
3554666290,-5143,1194,-9794,1296,1226,-1166,534,-125,-1265,0
3554686279,493,2878,-12145,1985,43,-848,540,-125,-1240,0
3554706268,1886,5216,-17751,861,-552,-948,522,-131,-1215,0
3554726257,-4716,6919,-15314,69,710,-440,540,-143,-1240,0
3554746246,-15422,1121,-9608,-1122,526,158,510,-137,-1240,0
3554766235,-10424,751,-14717,-1423,182,-426,510,-149,-1240,0
3554786224,-7778,2731,-16293,-1484,1532,-508,516,-119,-1276,0
3554806213,-7280,687,-17979,-1716,1479,-650,504,-137,-1313,0
3554826202,-8014,2707,-19212,-969,339,130,510,-119,-1288,0
3554846191,-4293,2759,-16925,-377,-784,1672,504,-125,-1313,0
3554866180,-4215,3241,-17563,29,-2674,938,516,-96,-1265,0
3554886169,-9258,1282,-15459,116,-2779,-134,534,-101,-1265,0
3554906158,-10432,667,-11917,596,-1507,-1151,528,-107,-1251,0
3554926147,-7854,3313,-14620,2213,-1855,-1743,534,-137,-1167,0
3554946136,-7900,2170,-17346,-419,54,-643,540,-131,-1153,0
3554966125,-5816,1907,-13635,-925,1266,-536,534,-143,-1190,0
3554986114,-6028,1383,-12913,171,-920,-797,552,-125,-1190,0
3555006103,-8760,1619,-16784,93,-3523,-477,546,-149,-1142,0
3555026092,-8355,1205,-16489,-397,-4053,-166,546,-137,-1055,0
3555046081,-7712,1393,-10585,-348,-4167,-118,564,-131,-994,0
3555066070,-9190,1221,-8061,-447,-4716,-1001,570,-155,-932,0
3555086059,-10628,331,-8576,-707,-2440,-964,570,-167,-921,0
3555106048,-13065,991,-9735,-506,-1647,156,570,-161,-882,0
3555126037,-12025,1520,-7777,-101,-2449,523,564,-161,-809,0
3555146026,-10936,1254,-7776,426,-1428,3,558,-149,-784,0
3555166015,-11257,1748,-7116,141,-2430,18,552,-149,-723,0
3555186004,-15222,2483,-6241,-181,-2975,455,558,-149,-686,0
3555205993,-18304,3004,-7265,-38,-168,742,564,-155,-700,0
3555225982,-13998,1576,-6657,96,956,1151,558,-149,-723,0
3555245971,-9615,1901,-2640,-107,3754,1970,564,-125,-736,0
3555265960,-17613,5073,-14312,227,6912,2251,575,-107,-846,0
3555285949,-15088,4934,-13906,702,2809,801,587,-84,-882,0
3555305938,-11181,3926,-12150,684,2363,663,564,-60,-1005,0
3555325927,-10825,3948,-12852,569,2284,662,564,-96,-1019,0
3555345916,-12728,4483,-14839,617,1307,281,564,-101,-1044,0
3555365905,-12431,4169,-14696,887,1407,-547,558,-78,-1044,0
3555385894,-10826,3653,-11538,933,2543,-1225,564,-101,-1105,0
3555405883,-13361,5200,-11046,9,1126,-1709,576,-101,-1117,0
3555425872,-13798,6444,-13426,-739,-1132,-1155,552,-107,-1128,0
3555445861,-16030,6121,-11613,-623,-1689,307,570,-137,-1067,0
3555465850,-14614,2482,-11155,116,-1557,1833,552,-84,-1055,0
3555485839,-8370,3106,-13420,-238,-958,2225,575,-101,-1005,0
3555505828,-5521,4870,-11310,-85,102,2814,581,-60,-1030,0
3555525817,-15720,3939,-12525,-482,626,4140,575,-54,-1030,0
3555545806,-13368,6439,-7070,-1140,4680,3820,552,-18,-1117,0
3555565795,-11304,7999,-4061,-447,3714,4252,552,23,-1178,0
3555585784,-8874,6219,-7246,300,2488,5878,540,59,-1215,0
3555605773,-3120,6940,-4412,614,2310,5810,516,112,-1251,0
3555625762,-6805,11041,-5101,874,622,5670,480,136,-1240,0
3555645751,-8315,9659,-7351,1348,-386,7421,457,184,-1215,0
3555665740,-2625,513,-10271,1999,-863,8462,421,243,-1288,0
3555685729,3347,-4362,-13586,2756,-1006,5689,374,273,-1288,0
3555705718,5229,-580,-15676,3294,-460,2412,344,267,-1326,0
3555725708,6797,2197,-20946,2379,-29,1687,332,249,-1313,0
3555745697,6198,3972,-21303,654,114,1912,338,261,-1363,0
3555765686,1598,5392,-17334,55,85,3522,308,255,-1375,0
3555785675,-1137,389,-17766,-118,-126,6151,267,285,-1375,0
3555805664,1892,-4418,-24345,-284,-556,3840,243,285,-1363,0
3555825653,1268,4162,-19051,-203,1333,5,255,308,-1338,0
3555845642,4258,265,-16310,401,1658,458,249,273,-1338,0
3555865631,6053,-131,-15828,496,1112,413,207,302,-1375,0
3555885620,4397,-1582,-8741,-8,-29,161,219,302,-1363,0
3555905609,2691,720,-11769,-807,-3631,-684,225,290,-1338,0
3555925598,1876,8484,-22697,-3277,-5975,-849,249,279,-1276,0
3555945587,-2258,2704,-18184,-2311,-2703,1600,261,314,-1240,0
3555965576,-322,293,-15767,411,-121,617,261,302,-1226,0
3555985565,1168,1102,-15142,1212,2478,-164,243,332,-1251,0
3556005554,2815,4073,-19985,978,3386,-133,249,302,-1265,0
3556025543,547,2621,-12734,533,4325,-69,231,320,-1301,0
3556045532,-1328,2282,-3730,545,3272,-80,195,296,-1301,0
3556065521,-936,6609,-13071,147,-674,-250,207,308,-1288,0
3556085510,133,5161,-16618,82,-2441,-92,207,320,-1325,0
3556105499,2324,2581,-17006,151,-2679,-21,249,314,-1313,0
3556125488,3907,1953,-21853,-140,-3149,-130,255,296,-1265,0
3556145477,1461,2337,-21868,-570,-1874,-309,243,296,-1276,0
3556165466,-896,4217,-15018,-312,813,-273,261,314,-1265,0
3556185455,-1164,7263,-14579,-18,1310,-119,255,320,-1265,0
3556205444,667,5934,-16283,-64,1048,177,261,308,-1265,0
3556225433,2283,4026,-14686,187,856,236,249,290,-1276,0
3556245422,1820,4098,-13331,489,80,171,225,308,-1276,0
3556265411,1237,4933,-16899,746,-1206,170,231,308,-1265,0
3556285400,1802,3474,-18175,695,-1416,113,237,302,-1301,0
3556305389,430,4534,-18335,523,-555,55,249,296,-1288,0
3556325378,588,5463,-16948,76,1546,424,243,296,-1301,0
3556345367,1888,4319,-16032,47,1937,736,225,279,-1301,0
3556365356,2634,3126,-14812,265,1465,789,219,296,-1288,0
3556385345,3221,1586,-10209,225,621,645,207,302,-1325,0
3556405334,3008,2330,-11522,-21,-990,509,195,302,-1363,0
3556425323,824,1167,-17333,182,-1887,465,213,290,-1313,0
3556445312,1614,2657,-20839,2171,1822,-970,207,290,-1363,0
3556465301,4798,6064,-17756,1603,4117,-1543,207,273,-1375,0
3556485290,5516,1278,-15129,-377,1967,-240,190,290,-1411,0
3556505279,6012,-4043,-13433,-712,709,-173,190,279,-1338,0
3556525268,4947,804,-14828,-493,283,-1289,207,267,-1326,0
3556545257,3061,3405,-15396,-549,-158,-1149,201,267,-1351,0
3556565246,2785,4116,-15229,-525,-354,-393,219,285,-1301,0
3556585235,2312,3588,-14668,-247,-304,637,201,290,-1326,0
3556605224,4339,2404,-13889,-176,180,1195,201,296,-1301,0
3556625213,5637,4532,-18239,984,1525,2800,195,279,-1325,0
3556645202,-667,-6052,-14817,189,8484,3845,136,279,-1350,0
3556665191,10058,468,-12708,1003,2201,-255,100,279,-1313,0
3556685180,11102,2025,-14026,1769,-734,-1709,100,267,-1375,0
3556705169,8103,427,-13205,909,-33,-1407,118,261,-1400,0
3556725158,7398,657,-13505,549,63,-692,112,255,-1400,0
3556745147,8091,2240,-13402,435,203,54,118,255,-1388,0
3556765136,9201,1963,-13610,160,201,563,106,231,-1388,0
3556785125,8108,52,-13753,110,397,1297,112,249,-1375,0
3556805114,7367,-757,-13557,134,553,992,106,261,-1326,0
3556825103,8999,633,-12995,58,514,349,100,261,-1436,0
3556845092,10094,1490,-13029,-114,416,1017,95,261,-1411,0
3556865081,7664,443,-15215,-124,295,1469,89,255,-1411,0
3556885070,7133,-1663,-12984,1269,830,-661,65,249,-1363,0
3556905059,10135,167,-10986,136,472,-1723,83,243,-1425,0
3556925048,8258,962,-11704,-1026,165,-664,77,231,-1375,0
3556945037,8657,1801,-11208,-645,68,-488,89,255,-1350,0
3556965026,8447,439,-12542,-491,-352,-686,83,273,-1388,0
3556985015,8495,-67,-14472,-256,-282,-608,95,273,-1350,0
3557005004,8263,1244,-14708,97,107,-416,89,273,-1363,0
3557024993,5072,3646,-17248,-1785,-139,499,95,273,-1350,0
3557044982,13905,362,-5528,-4291,-928,1212,100,285,-1313,0
3557064971,8030,1807,-15260,1257,-107,-555,83,308,-1338,0
3557084960,7241,3402,-16183,511,238,-446,89,290,-1325,0
3557104949,10948,296,-12343,32,48,403,89,273,-1326,0
3557124938,9547,121,-14630,975,81,414,83,273,-1313,0
3557144927,9937,2374,-17256,943,962,1168,89,273,-1350,0
3557164916,8892,1545,-16849,1682,2313,3155,53,261,-1338,0
3557184906,5754,-2017,-14898,3384,2109,3305,35,261,-1363,0
3557204895,6267,-10038,-14762,2959,1415,-45,5,213,-1411,0
3557224884,8130,-8392,-16508,-479,1207,-4960,11,201,-1411,0
3557244873,11298,-224,-16909,-3391,2146,-6877,35,243,-1375,0
3557264862,5696,3409,-11224,-6822,3863,-6817,59,296,-1276,0
3557284851,8848,7711,-1576,-8017,1516,-5301,100,344,-1190,0
3557304840,9177,6111,2688,-3464,447,-1180,118,350,-1117,0
3557324829,9910,8057,-1688,-1512,1945,1374,106,356,-1069,0
3557344818,12348,4691,-5507,-952,2162,2937,83,356,-1030,0
3557364807,14620,8201,-3205,582,1963,3582,53,362,-1055,0
3557384796,11486,7739,-2419,-1476,875,-1092,29,374,-1019,0
3557404785,12920,9581,-2984,-4048,-571,-5133,53,397,-994,0
3557424774,15157,9103,-886,-2582,1758,-5090,100,397,-896,0
3557444763,12849,8139,-2527,-2065,1636,-3007,148,385,-907,0
3557464752,12240,12599,-188,-2602,1942,-3292,172,391,-809,0
3557484741,12813,14212,-1904,-2744,1798,-2202,190,391,-786,0
3557504730,10584,16219,2242,-4083,1867,-1519,201,403,-736,0
3557524719,5256,15442,10480,-4959,72,-334,213,385,-613,0
3557544708,9262,12583,2247,-5143,-2807,343,207,374,-576,0
3557564697,5648,12751,2578,-3432,-1053,511,178,356,-501,0
3557584686,16342,18024,9205,-1571,-2782,-177,207,320,-478,0
3557604675,12143,11452,5147,-1255,-6215,798,166,332,-428,0
3557624664,10520,9543,3813,1701,-3803,138,124,326,-453,0
3557644653,10684,11483,6002,4536,-722,230,136,362,-478,0
3557664642,10655,12876,3107,4655,-2129,789,124,380,-625,0
3557684631,11230,10143,217,3508,-914,1298,83,362,-650,0
3557704620,8128,14996,-1983,2184,101,1281,95,391,-663,0
3557724609,16780,6780,-7238,2801,1317,3450,71,374,-711,0
3557744598,13366,4114,-1717,719,3129,1736,59,391,-723,0
3557764587,12980,9965,2475,190,2186,160,47,380,-736,0
3557784576,15386,12926,-2527,1132,202,912,53,374,-723,0
3557804565,15848,13747,-5024,1872,-740,2215,41,391,-798,0
3557824554,15865,7806,-6003,2038,-1169,2904,0,356,-846,0
3557844543,15491,4789,-3962,1242,-1166,2413,-12,362,-871,0
3557864532,15483,1108,-3840,351,-1722,2257,-42,350,-871,0
3557884521,13971,-2994,-10897,-774,-1868,75,-24,350,-896,0
3557904510,14942,4810,-9483,-977,287,-2371,-30,350,-896,0
3557924499,13190,8136,-1017,2282,1135,-1698,-30,350,-932,0
3557944488,14732,8871,-5445,1855,-173,-835,-6,362,-946,0
3557964477,15390,9311,1429,1553,745,-82,0,380,-957,0
3557984466,14460,8752,587,1740,-588,416,-18,356,-957,0
3558004455,13951,7543,-2358,1268,-1134,586,-18,374,-1005,0
3558024444,12617,6728,-1836,297,-502,56,-18,356,-1030,0
3558044433,10636,6233,1926,-457,-227,-423,-6,344,-1019,0
3558064422,8508,5968,4232,-1150,-801,-620,-12,362,-994,0
3558084411,8199,6609,1765,-1653,-1866,-700,11,362,-1030,0
3558104400,6716,5859,-447,-1856,-2635,-1012,29,374,-1007,0
3558124389,6167,6527,-1195,-2507,-2408,-2003,11,380,-969,0
3558144378,5866,8840,-1748,-2829,-2099,-2327,41,368,-921,0
3558164367,9211,11498,-7914,-3058,-1972,-2204,83,391,-859,0
3558184356,20254,16077,-21258,-1766,-1141,-906,89,397,-809,0
3558204345,17986,17360,-19094,-644,2363,1433,89,397,-823,0
3558224334,11897,10544,-8178,-1290,5536,1791,59,385,-823,0
3558244323,12056,8542,-101,-2166,5915,1072,53,380,-736,0
3558264312,13948,11859,2929,-2295,4709,1026,65,374,-663,0
3558284301,16199,11273,5473,-2757,4748,885,71,380,-576,0
3558304290,13503,8261,5903,-3341,4279,1245,77,397,-563,0
3558324279,9584,5433,7712,-3311,3287,759,83,344,-453,0
3558344268,10726,6103,8364,-2976,2069,5,89,332,-453,0
3558364257,12359,10606,15110,-2207,1174,-147,112,308,-355,0
3558384246,11889,13076,17888,-2090,93,317,112,314,-355,0
3558404235,11605,11963,4655,-3340,-839,493,95,290,-342,0
3558424224,14796,6932,-11332,-3122,-1127,494,100,255,-280,0
3558444213,15246,13219,-2284,1173,-298,-596,106,237,-294,0
3558464202,18388,13865,7243,3609,-3166,1177,77,290,-355,0
3558484191,13746,6767,7542,2214,-2114,1900,41,296,-380,0
3558504180,9878,4579,12323,148,390,664,41,302,-380,0
3558524169,11182,4175,11096,-1029,1246,161,23,302,-417,0
3558544158,12475,2612,8494,-1982,921,-466,47,273,-367,0
3558564147,11723,5102,9621,-1230,759,-2480,53,273,-330,0
3558584136,15923,9310,-1265,-1247,1606,-2294,83,279,-330,0
3558604125,15650,13468,13650,-2199,2805,61,136,255,-294,0
3558624114,17123,8593,5831,4344,-3907,1131,100,261,-342,0
3558644104,9755,3210,13540,5120,-3932,1156,65,302,-403,0
3558664093,6336,-1431,8619,5944,-7365,-275,29,302,-526,0
3558684082,674,3134,-6978,8843,-13447,-2194,11,356,-700,0
3558704071,11832,9946,-26233,7059,-9629,-2573,29,368,-932,0
3558724060,14659,17359,-22997,-2621,4158,704,41,356,-921,0
3558744049,2793,-5910,11856,-3406,7336,3101,5,356,-773,0
3558764038,14631,5815,-7053,2752,-2399,-107,23,356,-871,0
3558784027,13605,1028,-12938,2163,-1772,-104,5,356,-846,0
3558804016,14497,1430,-12783,1243,417,-334,11,362,-921,0
3558824005,19024,9871,-10132,433,1690,-637,5,350,-907,0
3558843994,24526,14763,-3111,386,1009,146,5,362,-871,0
3558863983,22485,15238,3883,1149,-206,1051,11,362,-932,0
3558883972,16008,10681,9781,545,-465,1297,0,344,-957,0
3558903961,8662,6327,16183,-664,-545,1242,-12,362,-969,0
3558923950,1453,3694,17550,-1479,-1632,1050,-18,344,-946,0
3558943939,-1178,6018,18194,-2984,-2931,451,-18,338,-921,0
3558963928,396,12181,11707,-5346,-3046,-98,-18,344,-846,0
3558983917,3300,18452,9174,-6045,-2777,-312,-12,320,-798,0
3559003906,6344,21991,-3056,-5990,-2885,-164,-18,332,-725,0
3559023895,6352,17548,-13059,-6453,-1950,-286,-6,320,-663,0
3559043884,13082,22525,-25009,-5627,-636,-618,-24,308,-503,0
3559063873,16872,24919,-26583,-5276,1315,-58,-6,285,-503,0
3559083862,12166,18984,-17214,-3795,1445,882,0,273,-417,0
3559103851,8136,9594,-13169,-1508,50,1445,0,249,-380,0
3559123840,8645,7125,-10491,-173,229,682,0,225,-403,0
3559143829,11811,17312,-14299,181,1042,-11,-6,237,-380,0
3559163818,9392,14489,-9943,-725,2505,782,-12,231,-342,0
3559183807,7246,9535,-6259,-919,2868,666,11,219,-342,0
3559203796,7213,8740,-3672,38,2575,124,17,219,-330,0
3559223785,7663,11220,2542,921,2217,-212,35,225,-305,0
3559243774,10609,13548,604,584,1463,-336,35,231,-305,0
3559263763,10416,12404,-399,-1001,2136,170,53,213,-269,0
3559283752,7237,4563,9221,-990,2300,134,71,219,-294,0
3559303741,11553,9169,6401,-61,758,-585,77,225,-280,0
3559323730,13897,9894,7788,-445,1001,-624,89,231,-232,0
3559343719,13376,7079,11544,-210,954,-774,89,225,-244,0
3559363708,15060,10793,4953,694,494,-880,89,231,-257,0
3559383697,14369,15246,5329,938,1155,-729,112,237,-232,0
3559403686,11913,14467,6888,58,1581,-291,124,243,-232,0
3559423675,10224,8176,9953,-952,1889,57,130,255,-257,0
3559443664,10493,5875,11138,-580,1711,-9,148,237,-207,0
3559463653,11055,9582,5676,1005,1216,-230,142,231,-221,0
3559483642,12163,11664,8868,2485,1308,-312,154,225,-232,0
3559503631,14444,15764,6927,3790,905,195,178,255,-282,0
3559523620,14486,12520,5530,5414,668,1264,154,296,-380,0
3559543609,10574,10356,9815,5586,1573,1273,166,326,-428,0
3559563598,9525,8950,5488,3861,2416,539,160,344,-465,0
3559583587,12406,9991,-2165,2664,2851,-292,178,350,-540,0
3559603576,10458,20894,-6794,1238,1851,-1169,190,350,-576,0
3559623565,12983,14996,-1824,726,2081,-471,201,362,-601,0
3559643554,13907,15556,2095,1604,2163,128,207,356,-625,0
3559663543,12451,10707,3871,2015,2285,843,201,380,-638,0
3559683532,10318,10507,6496,3527,2297,396,207,385,-686,0
3559703521,8405,19612,10098,5029,1027,-218,219,415,-798,0
3559723510,7537,17038,3046,5915,-1837,1013,207,391,-909,0
3559743499,7009,15817,-5368,4961,-2821,1708,190,385,-957,0
3559763488,7893,16894,1157,2978,-2364,2879,178,403,-1030,0
3559783477,4684,14705,2419,3309,-4337,5654,154,374,-1092,0
3559803466,7395,2198,-9476,4857,-5680,7620,118,380,-1167,0
3559823455,9483,-4531,-1343,7558,-3532,6635,65,320,-1276,0
3559843444,13222,-8409,-10067,12055,-6616,4868,41,249,-1450,0
3559863433,9803,-9736,-17758,11609,-9271,1462,100,166,-1573,0
3559883422,8812,-6206,-18259,9852,-5155,-127,148,89,-1646,0
3559903411,11982,-2453,-15263,6625,-900,-1316,190,17,-1694,0
3559923400,13106,756,-17245,3089,688,760,201,-36,-1671,0
3559943389,-4065,-9546,-9878,-68,2637,2714,166,-36,-1657,0
3559963378,1947,-16322,-9365,2973,896,1096,154,-42,-1707,0
3559983367,6163,-15167,-4267,7541,-1509,1516,166,-90,-1671,0
3560003356,4539,-8152,824,3670,-2146,339,166,-143,-1621,0
3560023345,3492,-4881,-9944,-2242,-2791,641,195,-137,-1646,0
3560043334,7865,-4938,-12495,-4758,-794,948,201,-113,-1682,0
3560063323,-6925,-13412,-10180,-9723,-857,87,213,-60,-1682,0
3560083312,-1042,-13954,-23116,-7390,-109,-3886,249,53,-1634,0
3560103302,8511,-8483,-11288,1230,3186,-2866,219,35,-1634,0
3560123291,7016,-6628,-10615,1265,673,-380,201,35,-1621,0
3560143280,6877,-5169,-13051,-225,-1241,-50,201,29,-1646,0
3560163269,7174,-5009,-12837,-590,-1517,149,213,17,-1634,0
3560183258,4343,-6715,-13957,-1740,-768,-172,231,47,-1646,0
3560203247,4976,-8430,-14751,92,1024,-956,231,53,-1621,0
3560223236,5907,-6283,-13161,354,760,-585,237,41,-1596,0
3560243225,5747,-6382,-13735,-355,813,-376,195,41,-1634,0
3560263214,7943,-6005,-12116,-806,1011,-426,201,41,-1634,0
3560283203,6498,-6216,-13771,-2232,853,149,201,59,-1646,0
3560303192,6272,-4960,-15705,-2128,703,87,184,71,-1646,0
3560323181,5834,-4771,-14162,-1172,594,102,195,95,-1646,0
3560343170,3993,-4109,-11695,-1454,707,-177,195,89,-1609,0
3560363159,6709,339,-12274,-4287,480,-1598,184,112,-1621,0
3560383148,6113,3505,-14462,-7980,-1786,-1960,184,195,-1523,0
3560403137,3120,13327,-15129,-12671,-3183,-3281,225,237,-1400,0
3560423126,4425,11463,-21557,-17666,281,-2749,267,302,-1153,0
3560443115,5537,7182,-16817,-12463,-4549,6404,213,374,-994,0
3560463104,12953,1876,-481,-3232,-2610,5100,184,380,-896,0
3560483093,6928,15632,-10352,3108,2747,-111,172,385,-896,0
3560503082,8590,12157,-9371,-33,796,1104,184,368,-969,0
3560523071,9100,10117,-7841,-205,987,702,154,391,-921,0
3560543060,4776,9101,-15074,113,1081,214,154,374,-946,0
3560563049,7833,4970,-7345,-5784,-777,362,154,374,-823,0
3560583038,9961,13351,-1957,-4085,-743,168,130,380,-736,0
3560603027,7808,10355,-3889,336,-201,-440,154,374,-736,0
3560623016,7108,7323,-6446,1669,-793,-778,148,374,-798,0
3560643005,6192,8499,-7193,1488,-669,-996,166,391,-773,0
3560662994,6315,11359,-7264,979,-219,-886,160,380,-823,0
3560682983,7121,12501,-6913,208,-234,-913,178,380,-834,0
3560702972,6768,13514,-7615,379,-99,-980,184,380,-846,0
3560722961,4628,11649,-9131,481,689,-1460,190,380,-896,0
3560742950,4033,15127,-4968,98,930,-1522,201,380,-823,0
3560762939,4731,14026,-9123,219,-875,-1160,219,368,-823,0
3560782928,4688,14034,-8703,-852,-696,-635,225,380,-798,0
3560802917,5519,13959,-6649,-1573,634,-379,237,380,-809,0
3560822906,4120,17436,-8273,-1555,1461,-616,231,356,-798,0
3560842895,3833,15958,-6925,-1445,370,-41,237,374,-761,0
3560862884,5027,15183,-6914,-1535,471,815,219,362,-711,0
3560882873,8792,14276,-5267,-2111,1779,1522,225,356,-700,0
3560902862,9007,13464,-3293,-2129,1598,1354,207,368,-675,0
3560922851,7952,15110,-3266,-1181,954,824,213,350,-686,0
3560942840,6410,15939,-4500,-240,1036,577,201,350,-663,0
3560962829,1358,14658,-7539,-678,1504,932,195,356,-663,0
3560982818,12836,14370,-209,-1715,2243,2177,190,362,-613,0
3561002807,11325,16367,-2408,307,785,1000,184,362,-626,0
3561022796,10579,15200,-1027,65,210,485,166,356,-650,0
3561042785,9553,12717,-4721,-535,-784,-127,178,344,-625,0
3561062774,9003,12449,-3429,-2838,-2652,-336,184,362,-563,0
3561082763,8532,12872,308,-3053,-2746,-123,160,356,-540,0
3561102752,9432,14089,2406,-1247,-1581,209,166,338,-503,0
3561122741,8440,14772,1384,323,-227,336,148,338,-503,0
3561142730,7751,14629,-902,378,525,557,160,344,-515,0
3561162719,6787,16180,-348,-829,238,1418,148,338,-540,0
3561182708,8412,14671,3313,-1863,-1088,1509,124,326,-490,0
3561202697,10986,14309,6628,-2547,-1874,1287,112,320,-478,0
3561222686,11748,14876,12446,-5598,-4139,2611,95,302,-392,0
3561242675,8970,2323,-9330,-8829,-8335,4405,17,243,-305,0
3561262664,9021,5962,-4900,-893,-1785,2704,-12,213,-282,0
3561282653,12061,13535,-5027,823,-1042,1332,-30,207,-355,0
3561302642,11114,11751,-6098,430,-324,929,-48,213,-380,0
3561322631,11924,12314,-1015,30,1068,1278,-42,207,-367,0
3561342620,12693,8465,1138,-1525,180,1316,-60,178,-330,0
3561362609,11101,5918,919,-1733,-1411,975,-48,178,-355,0
3561382598,10751,4520,2924,-845,-2356,505,-78,166,-342,0
3561402587,12858,8600,2318,-328,-3607,-1921,-78,154,-403,0
3561422576,13636,13067,-3853,-1389,-4596,-4236,-90,166,-442,0
3561442565,12038,14522,-7390,-1993,-3002,-3316,-90,201,-417,0
3561462554,9186,13006,-5102,-1760,-376,-1671,-96,190,-428,0
3561482543,9413,11675,-2183,-1275,311,-1363,-90,184,-417,0
3561502532,10080,13311,12,-1499,477,-1278,-78,195,-392,0
3561522521,11838,12746,1714,-3056,1011,-382,-78,195,-367,0
3561542510,9882,13070,486,-4173,1457,1047,-54,160,-319,0
3561562500,9769,11568,1270,-3389,1352,1761,-48,124,-257,0
3561582489,11196,12861,4651,-3353,2102,2281,-54,106,-257,0
3561602478,10914,12993,3709,-4104,2489,2679,-42,77,-196,0
3561622467,10756,11612,3296,-3246,1871,2349,-24,29,-207,0
3561642456,10640,9881,2466,-1885,861,2043,-24,5,-171,0
3561662445,11275,10695,3161,-774,867,1511,-18,-18,-109,0
3561682434,11628,8621,6503,-314,1657,1307,0,-30,-171,0
3561702423,12391,5714,10080,240,1895,1480,11,-48,-134,0
3561722412,11008,6190,10076,100,1421,1473,23,-30,-134,0
3561742401,11536,7187,8905,-191,680,981,29,-54,-84,0
3561762390,9925,927,7918,-1327,925,574,35,-42,-109,0
3561782379,11487,15318,8454,-5207,2736,-1807,47,-78,-121,0
3561802368,12307,6889,12068,-2432,2624,-151,89,-107,-84,0
3561822357,9672,4539,10854,-1678,2148,432,89,-107,-134,0
3561842346,9389,5112,14338,-2285,2101,251,106,-149,-146,0
3561862335,10850,2687,14848,-1942,823,-231,118,-161,-98,0
3561882324,10876,2251,15370,-1545,138,-864,124,-161,-121,0
3561902313,12810,76,16071,-1158,-18,-1008,118,-196,-159,0
3561922302,9523,794,13837,-2717,-1210,-2476,130,-196,-109,0
3561942291,4348,8410,13282,-4073,-1317,-3706,95,-214,-182,0
3561962280,7830,4575,14105,-2556,118,-347,89,-250,-182,0
3561982269,10753,742,15889,-2030,419,355,77,-286,-196,0
3562002258,10472,326,15043,-1717,332,-561,83,-286,-244,0
3562022247,9747,933,14151,-1598,399,-1000,83,-268,-257,0
3562042236,8793,2564,12494,-1405,763,-934,83,-280,-221,0
3562062225,8475,346,15452,-1293,1316,-142,95,-280,-269,0
3562082214,8769,1880,14549,-1087,380,852,95,-315,-244,0
3562102203,7496,3008,14388,-1102,252,561,95,-303,-330,0
3562122192,8822,-1002,14575,-1152,184,-484,106,-315,-330,0
3562142181,8884,-1222,13989,-681,43,-434,100,-309,-319,0
3562162170,8057,-1108,14454,-274,-79,-240,95,-321,-294,0
3562182159,8006,-798,14977,-148,7,-294,100,-339,-330,0
3562202148,8050,-706,15256,-50,215,-362,89,-327,-305,0
3562222137,8375,-271,15157,86,64,-212,95,-321,-319,0
3562242126,8098,178,15493,418,177,39,95,-309,-305,0
3562262115,6974,-798,15552,618,322,162,89,-333,-330,0
3562282104,7607,248,14780,401,-18,-70,89,-321,-305,0
3562302093,8688,-574,14705,58,-271,253,95,-309,-294,0
3562322082,8399,447,13937,-30,-126,81,95,-321,-319,0
3562342071,8893,322,13994,11,232,-124,89,-309,-319,0
3562362060,8376,-492,14972,-32,417,132,89,-309,-294,0
3562382049,7423,352,15166,122,310,572,95,-315,-280,0
3562402038,7618,919,15325,48,64,855,100,-315,-305,0
3562422027,6996,-127,14542,-133,-34,657,112,-327,-305,0
3562442016,6979,-850,15112,66,216,740,112,-321,-294,0
3562462005,8090,-2026,15775,-115,313,1479,124,-321,-319,0
3562481994,8277,-2471,15175,-339,153,952,130,-333,-269,0
3562501983,7573,-1116,15174,-34,151,312,130,-327,-305,0
3562521972,7561,-25,15347,216,-91,-163,142,-327,-319,0
3562541961,7554,214,15333,231,-585,-735,148,-327,-305,0
3562561950,8228,146,15669,300,-865,-649,124,-321,-294,0
3562581939,5259,1136,11445,-121,-827,138,118,-333,-294,0
3562601928,9735,-4560,14782,-850,-737,1138,112,-315,-330,0
3562621917,9487,-1432,14515,60,-1173,269,112,-309,-344,0
3562641906,8867,-1852,14175,104,-783,400,95,-339,-319,0
3562661895,9426,-2547,13158,-110,-243,707,112,-339,-330,0
3562681884,9030,-3172,13561,-40,209,-127,118,-327,-330,0
3562701873,8893,-1945,14475,-53,414,-537,118,-333,-342,0
3562721862,8457,-1233,13948,-165,229,-804,112,-351,-294,0
3562741851,8531,-784,14139,53,-15,-596,100,-339,-342,0
3562761840,9427,554,14059,102,-307,-774,95,-333,-305,0
3562781829,9591,1642,14004,60,-392,-1141,95,-327,-330,0
3562801818,10008,1114,13782,-86,-239,-813,83,-333,-319,0
3562821807,12050,-700,13025,-66,178,-735,89,-321,-330,0
3562841796,7907,947,15132,-141,789,-1159,71,-309,-330,0
3562861785,7764,1041,14454,273,78,-369,65,-333,-305,0
3562881774,7557,378,13440,148,-129,451,77,-321,-319,0
3562901763,8279,-1245,13600,111,137,403,71,-321,-319,0
3562921752,8389,-96,15148,209,208,140,71,-309,-330,0
3562941741,8062,-215,14678,109,-257,558,89,-315,-319,0
3562961730,8481,-2242,13469,-144,-604,1091,83,-321,-319,0
3562981719,9805,-1563,14440,404,-1186,730,100,-321,-305,0
3563001708,10954,-23,14359,348,-1865,503,71,-315,-305,0
3563021697,11308,-30,13362,179,-1748,231,65,-315,-355,0
3563041687,12384,-627,13294,258,-983,-186,47,-309,-305,0
3563061676,12745,-461,13429,147,-474,-432,59,-321,-342,0
3563081665,11888,312,12955,-19,-223,-217,47,-327,-330,0
3563101654,11051,-212,11791,93,-95,-17,53,-315,-330,0
3563121643,10863,-801,11308,104,8,20,47,-297,-330,0
3563141632,10620,167,11864,-24,-68,-77,53,-309,-319,0
3563161621,10494,353,12509,-70,48,-158,41,-315,-367,0
3563181610,11149,74,13600,16,183,-96,35,-321,-342,0
3563201599,10864,-200,13512,-94,137,184,41,-315,-305,0
3563221588,10725,-201,13420,31,136,407,59,-315,-342,0
3563241577,10258,-360,12567,113,46,549,53,-309,-355,0
3563261566,10408,-770,12644,98,-2,418,41,-309,-330,0
3563281555,10535,-756,12679,-3,36,345,65,-327,-305,0
3563301544,11824,-931,13878,128,173,118,65,-321,-282,0
3563321533,14467,-1826,15395,618,-37,-973,53,-309,-294,0
3563341522,10924,13,12709,1032,-344,-1934,47,-297,-305,0
3563361511,12773,12,13575,730,345,-1046,35,-309,-282,0
3563381500,12734,2110,13708,540,537,-188,41,-303,-294,0
3563401489,10188,3319,11973,-190,-124,714,35,-291,-269,0
3563421478,8393,3738,11726,-534,-497,1085,53,-274,-305,0
3563441467,10245,1756,13691,256,-920,1137,47,-297,-294,0
3563461456,9002,441,12236,516,-1551,1887,47,-315,-269,0
3563481445,12894,143,12750,577,-1842,2923,47,-309,-294,0
3563501434,17952,-563,13465,-60,-2287,2809,53,-297,-282,0
3563521423,13637,800,10662,-633,-2614,1233,47,-315,-319,0
3563541412,11433,-3667,8369,-293,-2649,323,47,-315,-294,0
3563561401,12348,-4287,8134,1125,-2712,-888,29,-321,-330,0
3563581390,12436,-1488,6754,2480,-317,-2608,0,-297,-319,0
3563601379,13632,-1785,6723,2280,1229,-1439,0,-274,-294,0
3563621368,11698,1686,7195,855,1230,155,0,-268,-330,0
3563641357,11329,3637,7443,639,2675,861,23,-262,-244,0
3563661346,9674,-1230,9551,483,2895,1571,35,-262,-269,0
3563681335,10787,1190,10365,-27,3283,1151,71,-256,-232,0
3563701324,9305,762,10116,-507,3231,910,100,-268,-221,0
3563721313,7730,-1754,10462,-1085,2978,458,130,-274,-221,0
3563741302,10810,-2600,16332,-821,1789,123,160,-262,-232,0
3563761291,6390,-1631,14343,-558,975,337,154,-280,-244,0
3563781280,9121,-1085,14300,371,584,-1143,166,-321,-221,0
3563801269,10796,-2394,14186,853,-211,-2380,154,-286,-221,0
3563821258,9313,-614,12868,154,474,-1872,142,-262,-257,0
3563841247,7858,832,12717,-1364,920,-990,136,-280,-207,0
3563861236,7782,-1599,14094,-2428,1027,69,142,-309,-280,0
3563881225,10788,-2484,17673,-1394,945,594,148,-291,-269,0
3563901214,8398,-1119,14126,-40,349,563,166,-321,-305,0
3563921203,7916,-2464,12191,-241,1155,767,172,-303,-280,0
3563941192,5938,-2991,12317,-601,3588,1818,172,-286,-269,0
3563961181,4032,-980,16611,-2502,4143,2338,219,-327,-342,0
3563981170,2806,-839,15781,-1818,2557,1313,261,-357,-367,0
3564001159,4160,-3695,14465,-628,3067,2037,285,-327,-330,0
3564021148,2587,-6315,17127,-31,2388,1639,308,-321,-403,0
3564041137,1929,-7643,16103,-599,1209,697,332,-327,-403,0
3564061126,739,-5372,14475,-1364,2176,451,350,-327,-465,0
3564081115,-800,85,15741,-250,2618,568,356,-345,-465,0
3564101104,-2162,-2059,16761,1811,2190,-36,362,-339,-442,0
3564121093,-2673,-6404,19439,947,1923,4,374,-315,-478,0
3564141082,-1975,-6811,17146,-1325,686,523,385,-309,-465,0
3564161071,-1096,-5662,17222,-1349,-161,436,380,-345,-490,0
3564181060,-396,-6336,16946,-559,-256,98,403,-345,-490,0
3564201049,-658,-7419,16505,-331,-31,-307,386,-345,-515,0
3564221038,-2210,-5978,16328,-411,30,-337,380,-327,-503,0
3564241027,-2419,-5963,16385,-839,155,413,385,-327,-563,0
3564261016,-1620,-5528,17224,-1013,-148,997,374,-333,-576,0
3564281005,-1143,-5116,17326,-728,-559,1098,386,-333,-565,0
3564300994,-991,-4125,16972,-180,-793,1039,386,-327,-526,0
3564320983,-470,-4258,16383,168,-865,724,391,-309,-565,0
3564340972,-782,-5310,15967,507,-702,-32,391,-315,-526,0
3564360961,-1051,-5625,15187,1005,-327,-576,374,-333,-478,0
3564380950,-2588,-5152,15630,1021,-285,-174,391,-327,-526,0
3564400939,-268,-4750,15519,1134,-918,1052,385,-303,-453,0
3564420928,-400,-5049,15519,1434,-126,1172,380,-315,-490,0
3564440917,-215,-3693,15431,813,175,969,397,-297,-417,0
3564460906,-153,-3152,15523,-94,62,670,403,-297,-417,0
3564480895,-1400,-4315,16076,-253,129,255,391,-291,-417,0
3564500885,-1742,-4562,15955,-493,188,-62,403,-280,-428,0
3564520874,-1768,-5048,17274,-949,126,-689,397,-297,-442,0
3564540863,-1381,-4416,18048,-205,162,-1498,403,-303,-490,0
3564560852,-1771,-4068,18056,908,490,-1518,397,-321,-465,0
3564580841,-1583,-3150,18149,1755,429,-1012,386,-315,-453,0
3564600830,-2390,-1856,16885,2229,584,-337,397,-303,-442,0
3564620819,-3360,-1894,14261,1598,361,141,397,-297,-442,0
3564640808,-2185,-4035,12521,140,-2866,247,374,-274,-403,0
3564660797,820,-3248,15294,-1054,-2028,449,374,-286,-392,0
3564680786,2533,-4061,13118,-851,-879,370,368,-297,-367,0
3564700775,5153,-6793,18963,99,-788,-99,368,-327,-367,0
3564720764,4436,-5214,17156,298,-1283,-525,350,-297,-380,0
3564740753,3146,-2403,16832,1075,-1013,-484,356,-280,-355,0
3564760742,2330,-2634,16523,1023,-1437,-773,332,-291,-330,0
3564780731,3600,-1540,18185,772,-1608,-873,338,-303,-269,0
3564800720,2545,-2470,17659,952,-2023,-305,308,-280,-269,0
3564820709,2466,-2347,15065,1660,-1443,247,296,-274,-232,0
3564840698,4670,-1953,15265,1447,-1232,216,285,-268,-244,0
3564860687,5908,-830,14352,1339,-771,21,273,-274,-232,0
3564880676,5018,590,14605,1617,-363,-184,279,-244,-207,0
3564900665,6671,-6,10412,1052,-2406,-1304,261,-250,-244,0
3564920654,4300,1591,14740,619,-2995,-2502,231,-232,-146,0
3564940643,3049,1492,15744,591,-815,-1109,225,-232,-171,0
3564960632,4658,107,15852,-312,-987,-173,213,-226,-182,0
3564980621,9836,1045,12844,-1749,-2518,-65,178,-244,-171,0
3565000610,10238,1907,14261,-2641,-660,742,166,-244,-221,0
3565020599,11791,-980,14710,-2447,-978,482,178,-286,-207,0
3565040588,12181,-2949,15706,-1410,-1189,235,172,-280,-232,0
3565060577,11356,-1983,13322,-493,-173,581,166,-297,-232,0
3565080566,6660,-2239,16652,-1652,999,47,154,-315,-244,0
3565100555,5886,-1451,15328,-506,977,-637,166,-315,-269,0
3565120544,7344,-1299,14734,-10,654,-510,178,-303,-257,0
3565140533,7415,-2582,14863,83,448,-304,178,-297,-269,0
3565160522,8182,-2584,15135,397,224,-369,178,-327,-257,0
3565180511,8603,-1781,15381,614,148,-474,178,-309,-244,0
3565200500,7685,-1571,15437,383,138,-419,178,-309,-269,0
3565220489,8227,-1005,15351,49,103,-388,190,-303,-232,0
3565240478,7996,-286,14838,-46,170,-458,166,-297,-257,0
3565260467,7341,-678,14515,-2,465,-472,172,-309,-294,0
3565280456,6724,-363,14586,113,745,-456,172,-321,-221,0
3565300445,7699,-1895,13694,-55,522,-142,190,-297,-257,0
3565320434,7060,-965,14687,63,465,-175,178,-303,-257,0
3565340423,7005,-1084,15391,333,883,-123,195,-297,-244,0
3565360412,6820,-583,14992,28,742,-118,178,-303,-269,0
3565380401,5587,66,14830,-219,739,-244,184,-303,-244,0
3565400390,5627,-567,15186,-287,499,-32,195,-292,-221,0
3565420379,6543,-1206,15226,129,229,39,201,-280,-294,0
3565440368,6309,-1636,14957,514,167,14,195,-291,-221,0
3565460357,5408,-1738,15227,904,100,-39,201,-291,-232,0
3565480346,5420,-467,16532,1290,179,231,213,-309,-232,0
3565500335,5648,1305,17996,1873,412,957,201,-274,-232,0
3565520324,4769,2767,18046,3562,700,1491,225,-250,-171,0
3565540313,5301,3789,16553,6227,752,1568,219,-202,-159,0
3565560302,8482,1678,12682,6095,107,1221,225,-161,-134,0
3565580291,7735,4905,16829,2133,49,391,243,-149,-121,0
3565600280,6490,8423,16742,2204,-68,-235,231,-113,-98,0
3565620269,6642,8910,14429,4258,-292,380,237,-72,-73,0
3565640258,6552,7542,13346,5642,-261,2142,225,-30,-84,0
3565660247,7120,8922,13145,5190,150,2974,213,17,-73,0
3565680236,4957,6092,13855,4324,340,2495,219,65,-134,0
3565700225,9224,8420,10926,2748,-44,309,213,89,-98,0
3565720214,8793,11218,8734,1253,-171,-760,225,100,-134,0
3565740203,7977,11427,9808,452,-1215,-1172,213,89,-84,0
3565760192,5666,11783,7912,1763,-2671,-2403,219,100,-134,0
3565780181,5623,12070,7302,1773,-1383,-1357,190,118,-134,0
3565800170,6602,12287,8095,1683,-113,-215,201,148,-134,0
3565820159,8266,11627,9577,2464,-273,67,190,160,-182,0
3565840148,9470,10974,9267,4397,-1364,-791,190,195,-196,0
3565860137,3950,14669,4037,8152,-3826,-2500,184,237,-269,0
3565880126,6739,15797,3565,10346,-2753,-559,160,279,-392,0
3565900115,4588,12763,-4248,7205,2740,-876,190,338,-540,0
3565920104,5302,14552,-2215,-1101,-289,-611,184,326,-503,0
3565940093,5794,14818,-3734,-1114,-1169,-172,178,338,-490,0
3565960083,2539,14139,-3884,-1914,-701,918,166,326,-442,0
3565980072,5208,16465,-3226,-1841,-1745,274,166,314,-442,0
3566000061,7373,16501,-431,-2176,-1935,590,160,320,-428,0
3566020050,6991,15337,-2554,-2185,-2345,1041,130,290,-380,0
3566040039,6583,15290,-3219,762,-423,-69,118,285,-392,0
3566060028,7257,14617,-2615,3409,304,-1021,124,296,-403,0
3566080017,7462,14911,546,3165,1020,-773,124,320,-478,0
3566100006,10474,16972,1544,1351,2674,-1026,136,344,-503,0
3566119995,7439,15276,-2343,16,2890,-689,172,344,-490,0
3566139984,5951,14574,-3526,22,2171,-669,178,332,-490,0
3566159973,6506,14318,-3526,-644,1946,-258,184,344,-503,0
3566179962,7107,14798,-1338,-935,1462,687,201,332,-503,0
3566199951,4838,14065,-661,-1578,-34,903,207,314,-453,0
3566219940,3822,14113,-798,-2696,-951,484,190,308,-453,0
3566239929,7396,14488,3762,-262,-2305,138,195,302,-428,0
3566259918,7219,15581,3507,-1347,-1036,-1071,172,308,-392,0
3566279907,6258,14859,2152,803,-350,-1552,184,314,-417,0
3566299896,4934,14505,52,2206,48,-1132,195,320,-465,0
3566319885,4460,14460,-942,3112,-1142,-696,190,332,-503,0
3566339874,4860,14288,-2182,6088,-3696,-751,190,332,-563,0
3566359863,5133,13990,-5852,8458,-4895,-821,190,374,-626,0
3566379852,3185,12353,-9210,6777,-4111,-692,172,386,-773,0
3566399841,-385,9131,-11782,3856,-2096,-636,172,380,-859,0
3566419830,-378,10377,-11943,2405,-849,-340,195,362,-907,0
3566439819,1334,11316,-11963,1918,-965,147,195,385,-932,0
3566459808,2280,11470,-11417,1752,-856,141,184,397,-971,0
3566479797,303,9346,-12826,1849,-672,-85,184,374,-1032,0
3566499786,1325,8411,-13712,1528,-250,218,190,386,-1055,0
3566519775,4671,7530,-13358,1645,348,45,184,362,-1019,0
3566539764,1319,8919,-12757,2824,640,-882,190,356,-1055,0
3566559753,2097,7337,-13155,3995,465,-1150,184,368,-1130,0
3566579742,-133,4168,-14907,5357,924,-1605,201,356,-1228,0
3566599731,3325,2019,-13671,7391,4416,-1371,219,314,-1326,0
3566619720,6171,5605,-20087,4009,7897,-1378,166,267,-1425,0
3566639709,5076,1033,-13023,-612,677,-242,172,273,-1388,0
3566659698,4200,-346,-15143,239,-53,70,166,296,-1413,0
3566679687,4089,1802,-15359,-35,291,47,166,290,-1376,0
3566699676,4395,2113,-14762,-240,383,99,160,285,-1400,0
3566719665,6302,2038,-13995,-134,175,74,172,267,-1388,0
3566739654,5988,2221,-13222,-201,60,55,160,279,-1388,0
3566759643,5310,2555,-12893,-334,239,197,160,273,-1413,0
3566779632,4911,3350,-13595,-340,232,316,160,285,-1388,0
3566799621,6012,2442,-14232,-79,14,347,160,279,-1411,0
3566819610,6017,2392,-15108,137,-74,161,160,302,-1388,0
3566839599,5749,1015,-15868,213,309,5,154,279,-1388,0
3566859588,5039,869,-15163,-21,800,-114,154,296,-1326,0
3566879577,6409,-681,-14001,-383,764,311,130,285,-1388,0
3566899566,7918,3444,-14797,-449,155,424,130,290,-1376,0
3566919555,8037,4599,-15512,-528,58,356,130,290,-1351,0
3566939544,7991,4078,-14933,-958,643,302,124,285,-1351,0
3566959533,6444,4292,-11673,-617,1065,-77,112,296,-1326,0
3566979522,6336,-833,-15536,2080,1558,624,118,290,-1413,0
3566999511,9322,906,-15274,-807,626,1245,95,273,-1351,0
3567019500,11103,2448,-12443,-1766,673,922,89,285,-1363,0
3567039489,14947,1338,-4629,-786,460,43,95,296,-1290,0
3567059478,4740,1083,-17002,5813,2017,-3320,100,273,-1388,0
3567079467,11881,277,-12921,1513,3334,-1579,89,273,-1436,0
3567099456,8262,3432,-10934,-1626,2976,-3835,83,290,-1400,0
3567119445,7701,3945,-6470,-820,2052,-2566,112,296,-1363,0
3567139434,10432,1035,-9253,38,-32,-1083,89,296,-1388,0
3567159423,10916,2931,-11190,2333,-360,-622,106,285,-1400,0
3567179412,9853,2633,-11706,2560,-965,460,112,279,-1425,0
3567199401,8481,576,-10988,2134,-1910,926,112,255,-1400,0
3567219390,10806,1521,-11879,554,-3253,-353,136,243,-1461,0
3567239379,8293,1678,-15756,-2219,-2433,-78,136,243,-1413,0
3567259368,7778,2989,-14850,-935,-1811,535,154,267,-1411,0
3567279357,6915,3375,-13214,-306,-1454,391,166,285,-1450,0
3567299346,6334,2254,-14223,127,-1105,53,172,267,-1413,0
3567319335,5956,1515,-14108,-87,-691,-429,178,279,-1400,0
3567339324,5783,2798,-13884,-123,-297,-587,207,261,-1413,0
3567359313,6141,3226,-14167,66,-187,-468,178,285,-1400,0
3567379302,5268,1482,-15064,-215,-546,-201,195,261,-1413,0
3567399291,5244,3848,-15455,-815,-924,713,201,285,-1400,0
3567419281,4645,3100,-15570,-590,-405,1213,195,273,-1413,0
3567439270,5541,3023,-15106,-57,399,60,184,290,-1351,0
3567459259,5888,3988,-14766,23,385,-110,190,279,-1363,0
3567479248,6650,3148,-14244,48,292,32,184,285,-1400,0
3567499237,7002,3200,-14339,71,233,-32,190,267,-1413,0
3567519226,7433,3349,-14524,64,203,-77,190,267,-1388,0
3567539215,6851,2732,-14319,90,64,-30,190,285,-1400,0
3567559204,4645,143,-15125,23,16,317,190,285,-1438,0
3567579193,6319,1911,-13190,-404,13,1353,166,285,-1388,0
3567599182,7229,7134,-12000,124,-69,462,172,279,-1400,0
3567619171,6434,366,-14202,-197,-127,3,178,267,-1363,0
3567639160,6613,2879,-14714,-181,-18,-142,178,290,-1376,0
3567659149,6352,2735,-14196,145,133,-211,172,279,-1338,0
3567679138,5565,2026,-13520,309,226,-248,166,290,-1363,0
3567699127,6046,3211,-14046,410,134,-470,172,279,-1400,0
3567719116,5293,3455,-13400,444,430,-703,184,291,-1363,0
3567739105,7074,2986,-13951,333,229,-781,172,267,-1376,0
3567759094,7074,3139,-14063,106,13,-669,184,290,-1411,0
3567779083,6819,3768,-14182,-378,-24,-427,190,296,-1413,0
3567799072,6595,4217,-14035,-622,-110,-63,184,279,-1388,0
3567819061,6195,2724,-14005,-270,73,81,195,273,-1400,0
3567839050,6602,3225,-14382,143,113,81,178,273,-1400,0
3567859039,6945,2990,-14728,198,45,46,190,273,-1400,0
3567879028,6942,3014,-14337,64,63,-18,184,296,-1413,0
3567899017,6564,3004,-14243,137,8,-58,207,267,-1376,0
3567919006,6380,3289,-14312,348,-74,13,190,285,-1413,0
3567938995,7144,3860,-14330,261,-41,49,184,267,-1400,0
3567958984,7477,3315,-14385,130,-65,-48,184,296,-1413,0
3567978973,7162,2663,-14622,235,-195,-28,195,285,-1425,0
3567998962,6613,2790,-14043,316,-208,17,184,255,-1400,0
3568018951,6334,2764,-14020,399,-230,172,184,261,-1413,0
3568038940,6210,2675,-14665,250,-162,113,190,279,-1436,0
3568058929,6158,2404,-14860,92,72,-111,178,255,-1436,0
3568078918,6196,3085,-14432,-142,216,-165,184,273,-1425,0
3568098907,6163,3468,-14230,-107,170,-100,184,273,-1400,0
3568118896,6441,3511,-13290,137,140,101,190,273,-1450,0
3568138885,6060,2509,-13830,-77,284,108,201,267,-1351,0
3568158874,6736,2777,-13850,275,80,102,190,285,-1413,0
3568178863,7409,2487,-14128,258,-228,121,178,279,-1413,0
3568198852,7031,2327,-14601,-51,-267,138,178,261,-1413,0
3568218841,6480,2605,-14670,-221,36,104,184,279,-1388,0
3568238830,6375,2760,-14872,-92,297,42,166,279,-1425,0
3568258819,6913,2630,-15151,82,243,24,172,273,-1436,0
3568278808,7911,1663,-15894,-53,314,-205,172,279,-1413,0
3568298797,8183,2101,-16124,-292,532,-426,172,261,-1425,0
3568318786,7781,2912,-15152,-109,452,-324,166,267,-1400,0
3568338775,7554,2929,-15036,305,100,16,178,261,-1450,0
3568358764,7606,3323,-14787,643,-100,425,184,273,-1436,0
3568378753,8138,3940,-14887,984,-308,764,172,267,-1450,0
3568398742,8166,3198,-14607,985,-468,726,184,249,-1450,0
3568418731,6409,672,-13341,985,-628,345,172,249,-1438,0
3568438720,5921,2350,-13382,488,-574,22,178,243,-1486,0
3568458709,6465,2930,-13771,-270,-682,-245,184,261,-1413,0
3568478698,6109,993,-14010,-731,-451,-130,190,267,-1450,0
3568498687,6991,1423,-13786,-324,-324,-4,201,237,-1450,0
3568518676,6127,1690,-14046,167,-342,-475,190,237,-1438,0
3568538665,5681,646,-13665,66,-100,-297,201,255,-1461,0
3568558654,5192,-176,-13132,70,-173,-215,201,249,-1461,0
3568578643,2346,-3855,-13432,73,-598,-114,213,261,-1461,0
3568598632,1211,-1997,-14833,223,-671,39,219,225,-1461,0
3568618621,2301,-415,-15012,231,-237,98,225,237,-1450,0
3568638610,4507,3268,-15018,451,-43,-218,213,249,-1438,0
3568658599,5759,3051,-15733,485,-61,-709,231,249,-1450,0
3568678588,5419,374,-16236,349,-254,-328,225,243,-1461,0
3568698577,5036,1494,-15714,-32,83,-28,219,237,-1450,0
3568718566,4260,2408,-15591,-477,363,152,225,237,-1461,0
3568738555,4519,2660,-14443,-79,174,511,225,219,-1475,0
3568758544,5451,2077,-14111,417,-200,626,207,249,-1473,0
3568778533,5568,1367,-14823,652,-608,607,207,243,-1450,0
3568798522,4560,-500,-15333,732,-805,292,219,225,-1461,0
3568818511,4322,-525,-14902,664,-617,-126,213,207,-1450,0
3568838500,3245,-1323,-15233,187,-295,-532,225,237,-1461,0
3568858489,3138,-1277,-14779,49,-60,-740,237,213,-1486,0
3568878479,5845,1420,-14484,182,53,-160,225,231,-1475,0
3568898468,6792,2181,-15514,-614,249,246,249,225,-1473,0
3568918457,7160,2173,-16303,-1332,751,634,219,237,-1475,0
3568938446,5764,633,-15870,-872,1015,937,231,237,-1500,0
3568958435,5629,431,-15768,-278,451,605,213,243,-1461,0
3568978424,6294,2201,-15697,45,-216,351,195,249,-1450,0
3568998413,5260,1320,-15576,114,-463,200,195,237,-1500,0
3569018402,5541,2378,-14599,79,-603,93,207,255,-1436,0
3569038391,5048,1253,-13706,564,-719,480,219,231,-1475,0
3569058380,3451,11,-14680,503,-279,827,207,249,-1486,0
3569078369,3391,-392,-15570,79,57,441,201,237,-1438,0
3569098358,3567,-365,-15435,-222,127,-60,207,231,-1425,0
3569118347,3629,-300,-14049,-419,345,-441,207,243,-1486,0
3569138336,5017,611,-13828,-366,516,-664,201,231,-1475,0
3569158325,5542,1549,-15154,-384,253,-901,195,249,-1400,0
3569178314,6175,1897,-16488,-361,-145,-770,207,255,-1461,0
3569198303,5622,1593,-16175,-139,110,-475,213,243,-1425,0
3569218292,5257,1672,-15287,17,228,-162,213,249,-1475,0
3569238281,4750,1456,-14968,46,-15,-217,201,243,-1413,0
3569258270,4485,2492,-15268,191,-250,71,213,237,-1436,0
3569278259,3198,881,-14759,70,-375,312,201,255,-1450,0
3569298248,3575,-104,-14791,94,-219,-144,225,231,-1425,0
3569318237,4238,1936,-15102,144,113,-161,213,237,-1450,0
3569338226,4652,2251,-14951,-37,363,101,219,225,-1450,0
3569358215,5097,1753,-14879,-85,444,239,207,243,-1438,0
3569378204,5003,1311,-14758,-84,374,245,207,237,-1450,0
3569398193,5132,449,-14743,-55,309,367,207,237,-1486,0
3569418182,5515,574,-14765,-66,150,163,207,237,-1450,0
3569438171,5597,388,-14805,-51,-47,2,213,237,-1450,0
3569458160,5198,6,-15112,116,-139,108,213,249,-1436,0
3569478149,4899,-186,-15512,349,-293,276,213,243,-1461,0
3569498138,4628,1269,-15757,407,-127,181,195,249,-1461,0
3569518127,5751,3447,-15203,-58,139,42,201,225,-1450,0
3569538116,5583,901,-14765,-206,315,-158,207,231,-1475,0
3569558105,5415,1018,-15090,131,98,-33,195,219,-1486,0
3569578094,5394,1063,-14803,133,66,-10,184,255,-1500,0
3569598083,5262,855,-14306,93,104,-31,184,243,-1461,0
3569618072,5560,734,-14461,72,134,-26,207,219,-1436,0
3569638061,5401,705,-14676,53,118,-22,201,249,-1475,0
3569658050,5286,579,-14719,30,125,-3,195,237,-1425,0
3569678039,5361,687,-14846,6,114,22,213,237,-1475,0
3569698028,5412,973,-15018,-9,86,-4,201,237,-1438,0
3569718017,4972,1052,-15057,-7,52,-20,201,225,-1475,0
3569738006,5073,1040,-14852,15,88,-31,201,231,-1461,0
3569757995,4900,854,-15000,33,114,-50,207,249,-1425,0
3569777984,5125,825,-15208,44,184,-66,207,243,-1450,0
3569797973,5466,1033,-15341,60,202,-66,184,231,-1475,0
3569817962,5098,978,-15429,92,239,-77,207,237,-1475,0
3569837951,4304,796,-15774,137,477,-107,195,237,-1475,0
3569857940,3758,669,-16219,212,1043,-156,190,255,-1486,0
3569877929,5880,826,-15037,310,1553,-172,184,225,-1475,0
3569897918,8484,952,-13574,364,1535,-173,166,231,-1475,0
3569917907,8528,752,-13240,391,1247,-171,154,219,-1486,0
3569937896,7051,393,-13480,420,1312,-199,166,237,-1511,0
3569957885,6169,285,-13086,476,1993,-271,154,237,-1475,0
3569977874,7753,52,-11792,472,2850,-334,142,207,-1461,0
3569997863,10454,27,-11309,406,3198,-337,112,201,-1486,0
3570017852,10983,-255,-11291,355,3153,-363,112,213,-1475,0
3570037841,10671,-275,-9730,351,3212,-459,71,231,-1461,0
3570057830,12671,508,-7020,361,3239,-569,41,219,-1475,0
3570077819,14256,1701,-4508,361,2977,-637,29,219,-1438,0
3570097808,14981,2387,-2862,315,2526,-627,0,213,-1475,0
3570117797,14770,2429,-3025,242,1846,-522,17,201,-1450,0
3570137786,13706,2642,-3519,205,1141,-471,17,195,-1413,0
3570157775,12491,2794,-4527,121,648,-587,-6,225,-1425,0
3570177764,10951,2249,-5481,-135,779,-785,-6,225,-1413,0
3570197753,12003,2265,-5485,-218,1152,-1029,-6,213,-1413,0
3570217742,13423,2457,-4375,-213,1329,-1262,-6,225,-1376,0
3570237731,13481,2229,-3648,-242,1358,-1410,0,243,-1388,0
3570257720,13522,1692,-4195,-296,1363,-1514,-6,231,-1363,0
3570277709,14848,1393,-5186,-431,1202,-1604,0,249,-1315,0
3570297698,16158,1461,-6319,-585,638,-1661,-6,249,-1351,0
3570317687,16055,1177,-6921,-741,37,-1735,17,255,-1338,0
3570337677,14898,1966,-6301,-871,-463,-1818,29,285,-1290,0
3570357666,13513,3405,-5470,-950,-909,-1767,41,290,-1265,0
3570377655,13052,4346,-6105,-918,-1283,-1558,53,302,-1276,0
3570397644,11717,4277,-7145,-827,-1413,-1403,71,285,-1253,0
3570417633,10363,4262,-8170,-815,-1216,-1411,95,308,-1253,0
3570437622,10612,5101,-8222,-793,-995,-1475,112,314,-1228,0
3570457611,10744,5971,-7437,-751,-973,-1572,130,338,-1253,0
3570477600,11210,6928,-6791,-672,-1133,-1639,142,314,-1215,0
3570497589,11084,7643,-6788,-578,-1452,-1637,154,314,-1215,0
3570517578,10706,8302,-7416,-571,-1715,-1624,166,350,-1192,0
3570537567,9936,8850,-7940,-624,-1818,-1632,190,362,-1155,0
3570557556,8851,9595,-8230,-701,-1561,-1674,213,356,-1178,0
3570577545,8155,10794,-8190,-774,-1020,-1666,231,350,-1142,0
3570597534,8230,11788,-7699,-782,-424,-1591,231,350,-1142,0
3570617523,9085,12637,-6572,-716,86,-1520,231,362,-1142,0
3570637512,9765,13078,-5979,-629,382,-1461,261,368,-1094,0
3570657501,9818,13100,-6240,-543,440,-1386,261,368,-1094,0
3570677490,9735,12854,-6306,-444,245,-1270,273,386,-1080,0
3570697479,8968,12868,-5527,-334,80,-1177,255,380,-1105,0
3570717468,8014,12734,-5209,-204,40,-1066,273,368,-1055,0
3570737457,7306,12509,-5388,-97,83,-966,291,380,-1007,0
3570757446,6974,11786,-5466,-18,219,-886,296,380,-1055,0
3570777435,6285,11384,-5072,-36,419,-905,296,391,-1032,0
3570797424,5768,11424,-4551,-52,636,-960,279,380,-982,0
3570817413,5613,11632,-4286,-69,696,-975,285,403,-1007,0
3570837402,5479,11676,-4667,-70,591,-929,296,397,-1007,0
3570857391,4586,11896,-4635,-93,489,-882,302,415,-1044,0
3570877380,3688,12307,-3645,-137,472,-871,290,409,-1044,0
3570897369,3688,12307,-3645,-166,512,-887,296,403,-994,0
3570917358,3258,13421,-3324,-166,512,-887,291,421,-994,0
3570937347,2983,14112,-3902,-159,488,-858,291,421,-994,0
3570957336,2432,14302,-5129,-127,364,-799,279,439,-971,0
3570977325,1489,14922,-5333,-187,355,-790,291,457,-946,0
3570997314,1440,16615,-4244,-309,523,-849,285,469,-896,0
3571017303,2079,17785,-4444,-341,604,-887,273,475,-896,0
3571037292,2250,18402,-5301,-295,450,-825,249,481,-848,0
3571057281,1603,18046,-5826,-272,240,-739,267,510,-859,0
3571077270,1510,18800,-5098,-312,204,-660,285,522,-811,0
3571097259,2133,19823,-4871,-212,148,-596,267,552,-798,0
3571117248,2652,20060,-6116,-180,135,-499,243,558,-750,0
3571137237,1870,19632,-6273,-178,26,-392,243,552,-750,0
3571157226,1385,19235,-5208,-177,-14,-323,267,587,-711,0
3571177215,2077,19096,-4669,-152,-40,-225,261,599,-688,0
3571197204,2954,18753,-5446,-141,-153,-84,243,635,-688,0
3571217193,1984,18451,-4846,-212,-213,-69,219,635,-663,0
3571237182,1069,18169,-3599,-268,-111,-63,219,659,-601,0
3571257171,1717,18380,-2989,-249,-67,30,225,682,-650,0
3571277160,2442,18784,-2849,-186,-109,88,225,688,-613,0
3571297149,2768,18673,-2830,-87,-215,125,201,694,-576,0
3571317138,2622,18251,-3429,27,-418,146,178,694,-565,0
3571337127,1815,17730,-3844,95,-561,119,160,706,-576,0
3571357116,1423,17341,-3328,90,-503,88,178,724,-565,0
3571377105,1494,16930,-3043,106,-378,73,190,736,-565,0
3571397094,1825,16746,-3331,131,-328,90,172,736,-576,0
3571417083,1797,16484,-4083,118,-369,108,160,742,-565,0
3571437072,766,16780,-3632,21,-336,81,142,730,-601,0
3571457061,895,17814,-3216,-55,-181,54,154,736,-601,0
3571477050,1651,18148,-3936,-66,-146,67,160,742,-588,0
3571497039,1191,18097,-3518,-105,-251,73,136,724,-588,0
3571517028,1374,18550,-2885,-106,-329,77,124,730,-588,0
3571537017,2917,18584,-4296,-88,-360,86,142,742,-588,0
3571557006,2718,17881,-5229,-138,-507,63,142,730,-576,0
3571576995,1852,17499,-3950,-208,-756,87,142,730,-551,0
3571596984,1760,17045,-3322,-195,-917,163,124,712,-576,0
3571616973,2037,16569,-3340,-100,-993,236,112,688,-601,0
3571636962,2193,15889,-3444,-12,-1022,258,136,688,-601,0
3571656951,2049,15095,-3727,-14,-969,258,124,665,-626,0
3571676940,1519,14572,-4004,-75,-860,252,160,677,-588,0
3571696929,1720,14495,-3428,-188,-790,293,124,647,-638,0
3571716918,1414,14742,-2943,-268,-670,296,106,641,-638,0
3571736907,1148,14943,-2536,-264,-508,259,118,629,-588,0
3571756896,1515,14672,-2733,-207,-350,193,118,617,-650,0
3571776885,1964,14394,-3598,-141,-322,120,148,641,-626,0
3571796875,2461,14455,-3691,-124,-521,99,112,629,-588,0
3571816864,1868,14552,-3912,-138,-775,109,118,587,-638,0
3571836853,398,14776,-4189,-180,-799,79,118,617,-613,0
3571856842,780,15857,-4106,-220,-616,79,124,605,-601,0
3571876831,1606,16733,-4677,-188,-548,113,142,599,-601,0
3571896820,2214,18163,-5757,-116,-703,195,118,599,-613,0
3571916809,2775,20123,-6967,56,-1143,313,112,593,-626,0
3571936798,2420,20863,-6785,341,-1696,405,118,605,-638,0
3571956787,1158,20585,-6533,659,-2052,457,106,593,-650,0
3571976776,-258,20828,-7270,890,-1919,367,106,599,-688,0
3571996765,-1040,20358,-8253,1165,-1467,372,124,570,-725,0
3572016754,16,19651,-7754,1463,-1030,557,112,546,-773,0
3572036743,2290,18775,-7174,1657,-772,800,124,564,-786,0
3572056732,4093,17894,-6925,1781,-710,909,130,552,-848,0
3572076721,3566,16353,-6824,1909,-810,876,160,528,-896,0
3572096710,2408,14849,-7432,1958,-789,820,142,504,-932,0
3572116699,1807,13857,-7762,1899,-506,744,136,498,-994,0
3572136688,2706,12869,-7122,1759,-184,718,142,492,-994,0
3572156677,3633,11603,-6975,1614,-130,746,178,475,-1044,0
3572176666,3027,10670,-7353,1465,-189,723,172,469,-1080,0
3572196655,2143,9489,-7584,1314,-157,682,172,469,-1128,0
3572216644,3125,8699,-7452,1131,28,665,160,445,-1117,0
3572236633,4623,8811,-7150,912,95,642,172,445,-1142,0
3572256622,5096,9083,-8040,772,-94,623,184,451,-1155,0
3572276611,4198,8619,-9127,747,-320,617,178,427,-1178,0
3572296600,3667,8172,-9289,657,-298,612,190,439,-1192,0
3572316589,4533,8950,-9005,496,-136,619,178,433,-1203,0
3572336578,4784,9379,-9514,427,-31,638,184,415,-1178,0
3572356567,3449,9591,-9682,336,161,516,195,427,-1217,0
3572376556,2949,9774,-9873,337,337,386,160,421,-1215,0
3572396545,3470,9292,-10005,342,531,305,166,415,-1253,0
3572416534,4143,8906,-10197,387,541,138,178,403,-1228,0
3572436523,4332,8818,-10258,305,612,225,178,415,-1215,0
3572456512,6006,8922,-9381,57,750,471,166,421,-1228,0
3572476501,5933,8949,-9729,40,328,403,172,409,-1228,0
3572496490,5138,9444,-10544,66,128,381,166,433,-1192,0
3572516479,5154,9078,-10198,142,116,287,166,391,-1217,0
3572536468,5745,8439,-10320,171,27,163,154,421,-1228,0
3572556457,4760,8040,-11357,167,203,38,154,409,-1228,0
3572576446,5606,9019,-11126,-49,476,-8,178,427,-1192,0
3572596435,6399,9650,-10911,-17,239,50,154,403,-1228,0
3572616424,7114,9229,-11018,38,-55,158,160,391,-1215,0
3572636413,6515,8475,-11201,124,-255,232,154,403,-1192,0
3572656402,6073,9310,-11289,115,-294,232,142,403,-1265,0
3572676391,6497,9582,-11543,15,-343,276,148,391,-1228,0
3572696380,6195,8650,-11746,10,-406,296,160,397,-1265,0
3572716369,5923,8572,-11601,-26,-392,284,148,391,-1215,0
3572736358,6072,8843,-11800,-411,-468,211,142,409,-1215,0
3572756347,6335,9790,-11841,-444,-371,18,154,403,-1253,0
3572776336,5927,10002,-11518,-177,-401,50,160,421,-1178,0
3572796325,5370,9593,-11298,-42,-348,206,148,403,-1203,0
3572816314,5360,9098,-11399,-36,-158,245,160,391,-1215,0
3572836303,5483,9279,-11673,-8,-81,244,160,397,-1203,0
3572856292,5408,9502,-11698,-72,-14,221,154,403,-1178,0
3572876281,4987,9068,-11590,-117,80,156,148,409,-1203,0
3572896270,4736,9826,-11384,-81,183,94,166,391,-1215,0
3572916259,5162,9751,-11587,39,137,158,160,380,-1215,0
3572936248,5360,9253,-11631,81,42,212,142,403,-1178,0
3572956237,5319,8878,-11194,88,43,201,136,421,-1217,0
3572976226,5469,8640,-11057,79,-13,124,154,403,-1215,0
3572996215,5294,9097,-11307,-6,-150,141,124,409,-1215,0
3573016204,6856,9209,-11618,19,-307,417,148,391,-1203,0
3573036193,6993,9482,-11587,289,-329,1346,136,421,-1215,0
3573056182,4397,8500,-11245,379,-288,1262,112,397,-1265,0
3573076171,5038,8062,-11654,161,-509,387,118,403,-1203,0
3573096160,6327,8664,-12358,83,-583,462,100,386,-1215,0
3573116149,5780,8037,-12310,87,-390,501,106,391,-1215,0
3573136138,5099,7915,-12045,-63,-262,42,100,391,-1240,0
