Timestamp(us), ax, ay, az, gx, gy, gz
2348169403,-8239,-2394,-13733,13,-4,-17
2348189392,-8240,-2398,-13658,13,0,-18
2348209381,-8233,-2367,-13687,8,1,-16
2348229370,-8188,-2424,-13702,7,-7,-15
2348249359,-8203,-2438,-13715,4,-10,-14
2348269348,-8268,-2415,-13659,3,-12,-14
2348289337,-8272,-2442,-13653,6,-7,-13
2348309326,-8247,-2446,-13655,8,0,-13
2348329315,-8201,-2416,-13616,11,-10,-13
2348349304,-8220,-2430,-13601,12,-16,-13
2348369293,-8240,-2432,-13564,16,-14,-14
2348389282,-8232,-2408,-13560,19,-17,-14
2348409271,-8298,-2423,-13664,21,-15,-12
2348429260,-8386,-2428,-13676,22,-4,-11
2348449249,-8371,-2450,-13687,24,5,-9
2348469238,-8271,-2482,-13672,22,7,-6
2348489227,-8235,-2440,-13667,17,2,-2
2348509216,-8205,-2419,-13707,14,-4,-2
2348529205,-8230,-2451,-13742,11,-2,-5
2348549194,-8182,-2483,-13705,9,5,-9
2348569183,-8179,-2521,-13674,5,5,-12
2348589172,-8188,-2535,-13706,0,3,-14
2348609161,-8228,-2479,-13713,-3,5,-18
2348629150,-8245,-2477,-13631,-2,6,-22
2348649139,-8264,-2464,-13579,-2,2,-22
2348669128,-8356,-2463,-13645,-5,-2,-21
2348689117,-8368,-2494,-13621,-4,3,-20
2348709106,-8274,-2473,-13560,-1,8,-20
2348729095,-8290,-2457,-13500,0,3,-15
2348749084,-8343,-2413,-13532,0,-7,-10
2348769073,-8394,-2436,-13689,4,3,-9
2348789062,-8334,-2493,-13606,11,24,-9
2348809051,-8185,-2531,-13434,14,19,-11
2348829040,-8109,-2530,-13482,10,-2,-11
2348849029,-8203,-2535,-13653,9,-8,-13
2348869018,-8223,-2505,-13623,15,16,-16
2348889007,-8144,-2444,-13490,18,37,-17
2348908996,-8119,-2344,-13470,14,28,-20
2348928985,-8205,-2281,-13638,12,12,-25
2348948974,-8306,-2254,-13661,19,15,-31
2348968963,-8313,-2351,-13624,25,21,-34
2348988952,-8277,-2436,-13621,26,24,-34
2349008941,-8317,-2520,-13477,24,20,-38
2349028930,-8212,-2602,-13251,35,-1,-49
2349048919,-8077,-2765,-12923,52,-52,-55
2349068908,-8152,-3000,-12730,86,-110,-55
2349088897,-8423,-3179,-12736,135,-122,-62
2349108886,-8474,-3292,-12677,185,-85,-69
2349128875,-8384,-3350,-12640,231,-40,-72
2349148864,-8577,-3325,-12761,266,-30,-72
2349168853,-8653,-3228,-12675,310,-37,-67
2349188842,-8824,-2966,-12678,363,-54,-55
2349208831,-8842,-2925,-12639,426,-41,-37
2349228820,-8763,-3277,-12584,494,-68,-13
2349248809,-8839,-3625,-12530,558,-116,18
2349268798,-8773,-4006,-12327,613,-174,46
2349288787,-8481,-4324,-12362,661,-301,73
2349308776,-8647,-4566,-12812,699,-382,91
2349328765,-8700,-4787,-13194,734,-288,84
2349348754,-8320,-5050,-13203,762,-185,54
2349368743,-8226,-5258,-13158,762,-179,17
2349388732,-8674,-5173,-13241,726,-225,-30
2349408721,-8912,-5069,-13520,685,-293,-83
2349428710,-9121,-4968,-13650,632,-358,-121
2349448699,-9352,-4819,-13515,571,-465,-134
2349468688,-9825,-5152,-13392,509,-576,-132
2349488677,-10083,-5776,-12855,456,-667,-130
2349508666,-9884,-6070,-11981,393,-760,-120
2349528656,-9312,-6197,-11027,325,-911,-100
2349548645,-8765,-6312,-9996,264,-1072,-88
2349568634,-8570,-6357,-9275,235,-1204,-108
2349588623,-8641,-6320,-8775,237,-1189,-176
2349608612,-8476,-6186,-8426,259,-968,-276
2349628601,-8226,-5886,-7898,277,-636,-391
2349648590,-7978,-5388,-7055,287,-464,-506
2349668579,-8199,-5021,-6843,312,-461,-603
2349688568,-8584,-4823,-6957,372,-447,-676
2349708557,-8788,-4709,-7182,439,-325,-723
2349728546,-8805,-4776,-7408,482,-168,-742
2349748535,-8592,-4895,-7422,510,-63,-747
2349768524,-8109,-5220,-7330,526,-17,-746
2349788513,-7717,-5913,-7284,548,3,-754
2349808502,-7633,-6621,-7514,596,9,-797
2349828491,-7563,-6948,-7515,655,-48,-868
2349848480,-7371,-7059,-6944,686,-175,-937
2349868469,-7279,-7022,-6131,699,-302,-984
2349888458,-7164,-7230,-5582,750,-408,-1035
2349908447,-7784,-8467,-6446,861,-358,-1110
2349928436,-8737,-10297,-7585,1019,-65,-1220
2349948425,-9518,-11859,-7460,1179,110,-1342
2349968414,-9803,-12655,-6783,1313,-32,-1406
2349988403,-9905,-13611,-6071,1391,-307,-1375
2350008392,-10467,-14587,-6015,1404,-427,-1248
2350028381,-10576,-15313,-6604,1365,-329,-1095
2350048370,-10621,-16140,-7453,1281,-144,-965
2350068359,-10002,-16879,-7652,1174,5,-858
2350088348,-8969,-17275,-6735,1075,116,-777
2350108337,-8234,-18148,-5365,991,101,-723
2350128326,-9508,-18658,-5303,931,21,-678
2350148315,-9788,-18342,-6605,899,105,-611
2350168304,-9212,-18060,-6921,871,262,-522
2350188293,-8885,-18359,-5570,799,438,-411
2350208282,-7868,-19136,-4529,684,558,-283
2350228271,-7006,-20015,-4762,525,536,-183
2350248260,-7310,-20308,-5923,344,399,-129
2350268249,-7700,-20525,-6691,170,304,-112
2350288238,-7054,-20558,-6255,30,260,-130
2350308227,-6967,-19701,-5380,-91,139,-154
2350328216,-7347,-18004,-4536,-173,92,-148
2350348205,-6718,-15459,-4116,-190,33,-135
2350368194,-6175,-11966,-4591,-164,-78,-121
2350388183,-5383,-9213,-4757,-125,-148,-112
2350408172,-6052,-9357,-3677,-116,-174,-121
2350428161,-7698,-10583,-1846,-106,-129,-140
2350448150,-7003,-10374,-1648,-31,131,-121
2350468139,-4632,-9770,-3337,71,386,-47
2350488128,-3667,-10283,-4251,115,486,-3
2350508117,-4743,-12081,-3417,198,460,-74
2350528106,-4806,-14825,-2287,339,510,-169
2350548095,-4642,-17648,-2467,338,493,-168
2350568084,-3430,-17557,-2764,262,279,-140
2350588073,-4387,-16870,-1966,202,299,-53
2350608062,-5259,-16090,-2797,33,438,2
2350628051,-4723,-16610,-2753,-62,271,-35
2350648040,-5421,-16789,-3544,-183,181,-58
2350668029,-6179,-16455,-4724,-289,345,-94
2350688018,-4514,-15796,-5654,-287,535,-137
2350708007,-3773,-15094,-5646,-244,479,-162
2350727996,-4711,-15057,-4512,-225,363,-154
2350747985,-5640,-15091,-4273,-255,451,-77
2350767974,-4785,-15442,-3965,-237,628,4
2350787963,-4275,-16088,-4583,-256,691,81
2350807952,-4129,-16104,-6258,-314,537,138
2350827941,-3139,-15924,-6627,-329,409,133
2350847930,-4237,-15443,-5240,-328,277,114
2350867919,-3381,-15642,-2534,-257,450,69
2350887908,-2216,-15423,-2497,-221,275,43
2350907897,-4759,-14946,-4535,-205,-22,11
2350927886,-5091,-14142,-5859,-138,3,-75
2350947875,-5495,-13825,-5525,-49,45,-173
2350967864,-5682,-13752,-4954,-22,55,-249
2350987854,-5342,-13803,-5217,-61,-88,-286
2351007843,-6366,-13745,-5882,-89,-207,-271
2351027832,-5108,-13672,-5040,-88,-307,-299
2351047821,-4295,-14095,-3369,-45,-443,-343
2351067810,-3731,-14780,-2211,26,-377,-336
2351087799,-2418,-15202,-3096,74,-247,-284
2351107788,-2270,-15043,-4790,118,-237,-238
2351127777,-2790,-15213,-5897,133,-207,-217
2351147766,-3103,-15431,-6166,125,-69,-192
2351167755,-2887,-15783,-5885,138,108,-150
2351187744,-2055,-16041,-5878,140,287,-77
2351207733,-1514,-15975,-6413,147,313,-29
2351227722,-2234,-16231,-6584,221,210,-13
2351247711,-3156,-17001,-5728,275,174,-9
2351267700,-2607,-16957,-5488,191,203,-12
2351287689,-5056,-16736,-4783,86,-12,25
2351307678,-5095,-16702,-2218,60,167,27
2351327667,-4569,-16343,-594,77,91,-32
2351347656,-6145,-16022,-1722,95,104,-62
2351367645,-5368,-15461,-3545,124,428,-57
2351387634,-4067,-14902,-5337,139,496,-54
2351407623,-3601,-15046,-5383,89,319,-43
2351427612,-3104,-15510,-4268,46,93,-27
2351447601,-3007,-15198,-4428,35,-119,-31
2351467590,-2731,-14620,-5430,38,-280,-70
2351487579,-3215,-14472,-6789,28,-404,-88
2351507568,-2965,-14879,-7049,-18,-517,-84
2351527557,-2715,-15386,-5436,-88,-677,-111
2351547546,-2754,-15595,-3529,-130,-818,-138
2351567535,-3571,-15482,-2953,-172,-728,-118
2351587524,-3334,-14871,-3898,-165,-502,-90
2351607513,-3090,-14524,-6457,-155,-441,-117
2351627502,-2463,-14240,-8563,-166,-450,-194
2351647491,-2400,-14091,-8728,-148,-409,-272
2351667480,-2849,-14533,-7918,-91,-544,-333
2351687469,-2638,-15044,-5704,-65,-767,-407
2351707458,-4796,-15248,-1745,-173,-957,-224
2351727447,-4789,-15775,-760,-118,-1141,-46
2351747436,-3078,-16469,-2340,-29,-1024,-68
2351767425,-3556,-16780,-4130,-70,-909,-50
2351787414,-5557,-16451,-4900,-149,-576,-22
2351807403,-6805,-14878,-4175,-134,90,17
2351827392,-1952,-14103,-1820,-35,499,-21
2351847381,-1682,-14031,-3843,-37,130,-98
2351867370,-4337,-13511,-5090,-81,-41,-134
2351887359,-2973,-14096,-4640,-31,162,-128
2351907348,-909,-15138,-4559,35,147,-97
2351927337,-982,-15609,-4083,67,-65,-66
2351947326,-3710,-15744,-4589,65,-225,-43
2351967315,-4939,-16003,-5021,64,76,44
2351987304,-3031,-15981,-3849,77,468,128
2352007293,-2843,-16055,-4476,76,432,179
2352027282,-3602,-16377,-4881,66,310,222
2352047271,-3006,-16563,-5186,32,358,260
2352067260,-3386,-16371,-4731,-64,378,298
2352087249,-3937,-15709,-3097,-145,328,316
2352107238,-4840,-15491,-5682,-194,175,327
2352127227,-5190,-15131,-5613,-248,72,322
2352147216,-5753,-13403,-1989,-132,85,238
2352167205,-5588,-15286,-5078,26,95,260
2352187194,-1659,-16572,-4763,138,203,275
2352207183,-1927,-15265,-5012,141,-12,253
2352227172,-5278,-13472,-6319,140,-72,286
2352247161,-3808,-12431,-7256,237,27,250
2352267150,-4449,-13758,-6492,242,-190,217
2352287139,-5194,-15103,-5666,174,-121,173
2352307128,-3998,-14893,-3250,132,112,137
2352327117,-5011,-14440,-1760,135,82,111
2352347106,-5455,-14411,-3656,123,86,41
2352367095,-5929,-14509,-7517,68,18,-53
2352387084,-5422,-13471,-8958,-26,-231,-149
2352407073,-2341,-13883,-4022,-102,-327,-248
2352427062,-8836,-13835,-7632,-177,-373,-248
2352447052,-10010,-13778,-11553,-265,-93,-352
2352467041,-2103,-12507,-4672,-271,294,-534
2352487030,5871,-18322,2081,-259,130,-453
2352507019,-1515,-22736,2125,-322,-179,-74
2352527008,-5263,-18775,-424,-402,10,272
2352546997,-5545,-14260,-7358,-468,-77,360
2352566986,-6123,-14892,-10155,-449,-358,267
2352586975,-5267,-13435,-9978,-375,-440,138
2352606964,-5329,-14037,-4494,-277,-572,1
2352626953,-4235,-15713,-900,-188,-784,-83
2352646942,-2881,-14894,-7099,-297,-904,35
2352666931,-3802,-14493,-8707,-656,-1034,245
2352686920,-7584,-15003,-6709,-916,-1040,408
2352706909,-7677,-14672,-9201,-961,-931,466
2352726898,-8690,-15688,-9696,-955,-909,436
2352746887,-8068,-16448,-7920,-965,-809,409
2352766876,-7994,-16006,-8455,-1136,-747,461
2352786865,-8122,-15292,-9963,-1345,-482,560
2352806854,-8407,-14728,-9810,-1509,-250,672
2352826843,-9173,-14723,-10802,-1667,-151,773
2352846832,-9297,-14574,-11568,-1839,-18,826
2352866821,-9336,-13688,-11874,-2004,104,846
2352886810,-9446,-12561,-12162,-2114,258,882
2352906799,-9357,-11882,-12367,-2150,294,931
2352926788,-8890,-11236,-11964,-2166,229,1014
2352946777,-9104,-10616,-13056,-2182,355,1154
2352966766,-9373,-10400,-13232,-2220,529,1276
2352986755,-9340,-9867,-13076,-2288,521,1339
2353006744,-9222,-9101,-13069,-2351,486,1367
2353026733,-9094,-8412,-12726,-2420,574,1359
2353046722,-9064,-7783,-12951,-2530,554,1301
2353066711,-8784,-7273,-13123,-2585,272,1233
2353086700,-8315,-6477,-13470,-2586,225,1217
2353106689,-8488,-5931,-13730,-2576,295,1223
2353126678,-8790,-5677,-13848,-2568,235,1229
2353146667,-8418,-4902,-13506,-2592,215,1239
2353166656,-8422,-3914,-13691,-2652,236,1238
2353186645,-8284,-3137,-14916,-2723,150,1233
2353206634,-8104,-2450,-15099,-2777,-41,1230
2353226623,-7827,-1295,-15041,-2852,-88,1231
2353246612,-7825,-14,-14517,-2925,-100,1229
2353266601,-6936,1800,-12985,-2963,-32,1220
2353286590,-6795,3000,-12967,-3021,64,1242
2353306579,-6362,4106,-10444,-2979,165,1236
2353326568,-6124,5122,-10864,-2954,255,1228
2353346557,-5991,5382,-9805,-2909,313,1209
2353366546,-5156,6396,-9156,-2857,233,1181
2353386535,-5219,7449,-8351,-2838,320,1148
2353406524,-4602,8313,-7359,-2773,459,1089
2353426513,-4273,9030,-6089,-2680,474,1007
2353446502,-4467,9686,-4115,-2502,489,904
2353466491,-3658,10597,-2859,-2294,482,803
2353486480,-3581,11230,-1748,-2072,586,735
2353506469,-3063,11836,308,-1783,588,644
2353526458,-2705,12432,1392,-1454,466,532
2353546447,-2521,12846,940,-1075,432,421
2353566436,-2703,12831,1346,-634,498,314
2353586425,-2562,13070,2141,-153,347,165
2353606414,-2970,13334,2949,323,228,-7
2353626403,-2453,13578,2327,766,309,-143
2353646392,-2421,13360,1408,1154,329,-227
2353666381,-2492,13045,-108,1502,287,-286
2353686370,-3344,12580,-999,1812,227,-340
2353706359,-3281,12229,-629,2123,235,-435
2353726348,-2392,11872,-1846,2343,207,-511
2353746337,-2291,11131,-5401,2457,45,-522
2353766326,-3315,9690,-6659,2603,16,-550
2353786315,-3886,8645,-7437,2785,30,-642
2353806304,-3261,7826,-8223,2944,11,-733
2353826293,-3252,7152,-10492,2974,-32,-735
2353846282,-4870,5862,-10338,3027,4,-707
2353866271,-5013,4546,-9582,3156,-19,-748
2353886260,-3327,3957,-12265,3145,-121,-755
2353906250,-5041,2646,-14308,3003,-96,-662
2353926239,-5592,961,-14241,2952,38,-632
2353946228,-4740,708,-12491,2880,-210,-688
2353966217,-4011,1189,-14273,2790,-436,-724
2353986206,-5426,212,-14001,2758,-251,-685
2354006195,-6001,-1727,-11302,2907,-265,-741
2354026184,-4647,-2583,-12926,3042,-558,-888
2354046173,-5692,-3714,-14848,3027,-465,-921
2354066162,-7001,-6273,-11745,3120,-263,-935
2354086151,-6191,-7998,-9892,3315,-461,-1068
2354106140,-5812,-8602,-14602,3294,-597,-1131
2354126129,-7437,-11478,-14503,3253,-425,-1080
2354146118,-7997,-13985,-12016,3253,-395,-1106
2354166107,-6350,-14626,-13502,3176,-457,-1150
2354186096,-6649,-15394,-14857,2933,-529,-1086
2354206085,-7301,-16336,-14654,2700,-318,-964
2354226074,-7064,-15985,-11844,2559,-88,-849
2354246063,-5871,-14764,-12711,2433,-220,-772
2354266052,-6478,-14769,-15043,2289,-305,-653
2354286041,-7862,-15623,-13177,2175,-127,-543
2354306030,-8051,-15426,-10594,2037,-79,-545
2354326019,-6540,-14653,-12110,1919,-142,-564
2354346008,-6710,-15312,-12331,1767,-182,-490
2354365997,-7675,-16108,-10887,1598,-4,-373
2354385986,-7722,-15091,-10221,1434,214,-290
2354405975,-6849,-14074,-9417,1396,246,-300
2354425964,-5960,-14772,-11568,1376,70,-355
2354445953,-6466,-16111,-9618,1184,75,-344
2354465942,-6211,-15612,-8695,910,152,-291
2354485931,-5802,-15103,-9262,691,158,-239
2354505920,-5639,-15334,-9696,467,188,-150
2354525909,-5995,-15455,-10204,192,281,-28
2354545898,-6468,-14811,-10768,-77,356,56
2354565887,-6447,-14372,-11097,-315,321,79
2354585876,-6533,-14835,-11986,-541,298,106
2354605865,-6490,-15322,-11753,-792,389,168
2354625854,-6989,-15233,-12000,-1069,414,233
2354645843,-6931,-15101,-12613,-1338,415,267
2354665832,-6709,-15366,-13714,-1593,485,327
2354685821,-6583,-15687,-14158,-1858,545,419
2354705810,-6638,-15440,-13750,-2119,519,496
2354725799,-6712,-14952,-14804,-2384,413,527
2354745788,-6524,-14813,-15573,-2625,405,567
2354765777,-6555,-14597,-15876,-2831,441,639
2354785766,-6584,-14053,-15882,-2998,433,696
2354805755,-6075,-13434,-15446,-3144,414,739
2354825744,-5914,-12716,-14861,-3272,334,783
2354845733,-5862,-11869,-15613,-3391,275,821
2354865722,-5770,-11148,-15361,-3485,259,837
2354885711,-5564,-10232,-15863,-3562,142,816
2354905700,-5361,-9206,-15185,-3603,92,796
2354925689,-5267,-8171,-14230,-3601,33,781
2354945678,-4929,-6896,-13834,-3575,-86,763
2354965667,-4780,-5604,-13543,-3513,-135,772
2354985656,-4769,-4600,-13530,-3416,-187,786
2355005645,-4680,-3918,-14154,-3325,-240,794
2355025634,-4936,-3009,-13696,-3269,-317,795
2355045623,-5281,-1515,-12652,-3220,-334,776
2355065612,-4725,268,-12287,-3149,-322,756
2355085601,-5017,1371,-12313,-3103,-400,774
2355105590,-5428,2303,-12604,-3029,-293,802
2355125579,-5530,2883,-12731,-2950,-83,818
2355145568,-5013,3774,-11228,-2897,97,809
2355165557,-4749,5375,-9875,-2898,189,794
2355185546,-4315,6915,-8997,-2871,155,781
2355205535,-4282,7971,-9432,-2841,339,793
2355225524,-4379,8185,-8981,-2756,594,768
2355245513,-3631,8840,-5631,-2633,670,694
2355265502,-3263,9999,-3657,-2479,614,615
2355285491,-2984,10434,-1979,-2197,577,546
2355305480,-2863,11049,-1702,-1945,596,487
2355325469,-2675,11631,-1483,-1651,657,425
2355345458,-2179,12272,-808,-1311,566,340
2355365447,-2116,12969,172,-968,480,251
2355385437,-1717,13669,1580,-582,440,161
2355405426,-1309,14151,1929,-207,291,84
2355425415,-1560,14208,936,158,75,38
2355445404,-2081,14023,-384,508,-29,-18
2355465393,-2217,13856,-998,867,-70,-93
2355485382,-1962,13721,-389,1191,-211,-172
2355505371,-2053,13479,-12,1422,-351,-232
2355525360,-1871,13004,-2128,1632,-261,-246
2355545349,-2373,11749,-3581,1866,-190,-238
2355565338,-3445,11084,-4264,2112,-384,-298
2355585327,-3444,10761,-2900,2394,-531,-398
2355605316,-2956,10284,-3706,2656,-453,-431
2355625305,-3318,8448,-6031,2864,-356,-401
2355645294,-4107,6857,-9587,2979,-654,-457
2355665283,-4753,6557,-9362,3069,-758,-600
2355685272,-4299,6238,-8363,3180,-524,-721
2355705261,-3360,5064,-8671,3230,-507,-759
2355725250,-4233,3068,-12501,3165,-701,-775
2355745239,-5153,1412,-13450,3152,-676,-860
2355765228,-5264,886,-14610,3118,-534,-957
2355785217,-4844,-371,-11932,3129,-706,-1067
2355805206,-5465,-1177,-12685,3058,-919,-1182
2355825195,-5934,-2525,-15484,2994,-592,-1214
2355845184,-7399,-5416,-14997,2997,-480,-1230
2355865173,-7151,-6521,-13610,3046,-696,-1357
2355885162,-6991,-6294,-14510,2983,-609,-1432
2355905151,-8233,-8386,-15900,2975,-243,-1396
2355925140,-8544,-10971,-13675,3030,-267,-1425
2355945129,-7626,-10540,-14343,2925,-441,-1501
2355965118,-7364,-10631,-15772,2742,-193,-1441
2355985107,-8001,-12708,-15753,2630,58,-1297
2356005096,-7818,-13595,-13919,2630,-22,-1194
2356025085,-6973,-12686,-13635,2565,-36,-1095
2356045074,-6477,-12655,-14436,2428,217,-927
2356065063,-7370,-13916,-14255,2276,273,-756
2356085052,-7309,-13617,-13795,2171,231,-642
2356105041,-7449,-12924,-11982,2115,285,-553
2356125030,-7505,-12982,-11133,2108,371,-488
2356145019,-6782,-13465,-11340,2148,396,-462
2356165008,-6440,-14566,-10045,2148,287,-465
2356184997,-6631,-15499,-8519,2069,174,-443
2356204986,-6704,-15713,-8703,1917,117,-397
2356224975,-6186,-15697,-9267,1800,157,-334
2356244964,-6143,-15950,-9507,1645,156,-287
2356264953,-5821,-16204,-9850,1413,12,-275
2356284942,-5837,-16211,-9303,1160,37,-205
2356304931,-6037,-15856,-8939,904,109,-115
2356324920,-5951,-15591,-9652,667,63,-54
2356344909,-6055,-15334,-10392,456,52,10
2356364898,-6428,-14857,-10626,242,99,76
2356384887,-6755,-14467,-10505,54,102,92
2356404876,-6565,-14487,-10881,-134,78,79
2356424865,-6221,-14780,-10957,-354,208,127
2356444854,-6575,-14826,-10841,-607,298,197
2356464843,-6799,-14697,-11203,-850,302,211
2356484832,-6203,-14483,-12112,-1071,354,234
2356504821,-6100,-14717,-12603,-1293,408,310
2356524810,-6257,-15074,-12563,-1515,409,371
2356544799,-6096,-15091,-12753,-1737,437,408
2356564788,-5934,-15055,-12287,-1954,481,461
2356584777,-5742,-14971,-13019,-2156,479,525
2356604766,-6007,-14877,-14113,-2355,497,586
2356624755,-6241,-14870,-14365,-2536,508,608
2356644744,-6117,-14825,-14401,-2700,513,603
2356664733,-5787,-14628,-14495,-2885,528,619
2356684722,-5798,-14224,-15673,-3091,513,650
2356704711,-5856,-13621,-16553,-3250,523,663
2356724700,-5535,-12683,-16735,-3371,530,649
2356744689,-5484,-11391,-15659,-3479,535,637
2356764678,-5000,-10217,-15351,-3576,497,626
2356784667,-4876,-9131,-16084,-3661,382,628
2356804656,-4904,-7927,-15702,-3693,335,636
2356824645,-4702,-6417,-15025,-3668,290,638
2356844635,-4617,-5020,-13844,-3618,192,651
2356864624,-4347,-4042,-13865,-3564,107,659
2356884613,-4705,-3621,-14142,-3523,40,655
2356904602,-4587,-2576,-13799,-3493,-36,632
2356924591,-4532,-1255,-13098,-3436,-112,608
2356944580,-4108,-42,-12227,-3356,-127,606
2356964569,-4079,1186,-12084,-3327,-192,627
2356984558,-4294,1924,-11627,-3249,-250,626
2357004547,-4100,3282,-12207,-3196,-236,623
2357024536,-4000,4344,-11462,-3182,-177,643
2357044525,-4030,5560,-11144,-3140,-258,656
2357064514,-3798,6667,-9639,-3115,-98,684
2357084503,-3631,7906,-8105,-3096,-14,701
2357104492,-3381,9246,-6705,-3075,99,716
2357124481,-3294,10428,-5184,-2999,348,735
2357144470,-2741,11111,-3523,-2819,520,718
2357164459,-2601,11690,-1425,-2631,317,658
2357184448,-2390,12512,253,-2408,222,588
2357204437,-1837,12996,1756,-2078,330,505
2357224426,-1096,13110,2544,-1649,270,418
2357244415,-1037,13318,3306,-1157,109,317
2357264404,-755,13638,3714,-656,136,216
2357284393,-476,13598,4499,-147,49,108
2357304382,-637,13513,2752,314,-216,-6
2357324371,-1068,13339,1672,706,-166,-95
2357344360,-1346,13296,1522,1064,-97,-197
2357364349,-866,13404,1232,1375,-120,-293
2357384338,-884,13202,820,1618,-175,-343
2357404327,-1517,12696,-1007,1832,-147,-375
2357424316,-2582,12011,-3174,2114,-101,-424
2357444305,-2152,11502,-2335,2462,-164,-498
2357464294,-1667,11619,-2601,2668,-357,-537
2357484283,-2608,10917,-2779,2826,-255,-517
2357504272,-2957,9537,-4209,3069,-133,-545
2357524261,-2372,7874,-6912,3311,-197,-620
2357544250,-3014,6977,-8529,3387,-433,-726
2357564239,-3979,6486,-8110,3496,-455,-867
2357584228,-3326,5065,-8703,3749,-330,-983
2357604217,-2501,3050,-9696,3826,-545,-1041
2357624206,-4970,1211,-12111,3624,-734,-1112
2357644195,-6230,-460,-15541,3575,-465,-1219
2357664184,-5023,-2226,-14675,3617,-553,-1316
2357684173,-5798,-3384,-13638,3433,-956,-1388
2357704162,-6726,-3874,-15521,3230,-873,-1400
2357724151,-7899,-6910,-13196,3207,-655,-1395
2357744140,-7290,-8312,-13691,3209,-874,-1447
2357764129,-7674,-8060,-15925,3092,-1087,-1502
2357784118,-8865,-9140,-16468,3023,-701,-1520
2357804107,-9446,-12150,-13012,3074,-489,-1562
2357824096,-8183,-12755,-11600,3047,-695,-1660
2357844085,-7438,-12131,-15229,2964,-607,-1646
2357864074,-8532,-14047,-14970,2915,-246,-1553
2357884063,-8025,-15322,-12931,2898,48,-1437
2357904052,-6883,-15518,-12107,2799,-82,-1336
2357924041,-6992,-15275,-14414,2625,-115,-1191
2357944030,-7747,-16334,-12866,2499,243,-1019
2357964019,-7169,-16641,-11977,2350,380,-890
2357984008,-6001,-15691,-13718,2136,384,-745
2358003997,-6545,-15380,-13201,1943,490,-580
2358023986,-7007,-15192,-11439,1805,640,-465
2358043975,-6438,-14975,-10415,1686,641,-404
2358063964,-5519,-14472,-11413,1548,527,-335
2358083953,-5808,-14507,-10425,1456,491,-230
2358103942,-6696,-14465,-9104,1413,523,-160
2358123931,-6456,-14375,-9384,1367,471,-176
2358143920,-5793,-14641,-8732,1266,432,-185
2358163909,-5810,-14915,-8561,1120,306,-161
2358183898,-6072,-15392,-8559,947,156,-161
2358203887,-5458,-15557,-8426,712,118,-146
2358223876,-5456,-15665,-8800,443,36,-94
2358243865,-5602,-15565,-9590,186,-10,-33
2358263854,-5635,-15574,-9755,-44,12,23
2358283843,-5784,-15616,-10223,-289,-16,56
2358303833,-5920,-15583,-11341,-563,-73,68
2358323822,-5857,-15569,-11582,-817,-73,99
2358343811,-5942,-15467,-11478,-1052,-54,161
2358363800,-6219,-15312,-11208,-1290,-64,219
2358383789,-6077,-15069,-11756,-1520,-48,274
2358403778,-6338,-15102,-12640,-1751,31,363
2358423767,-6609,-15086,-12722,-1973,104,434
2358443756,-6605,-14958,-13217,-2176,121,469
2358463745,-6458,-14940,-14014,-2376,193,516
2358483734,-6569,-15112,-13963,-2574,250,572
2358503723,-6423,-14869,-14156,-2742,252,628
2358523712,-6167,-14629,-14413,-2891,255,704
2358543701,-6685,-14303,-14988,-3045,294,780
2358563690,-6656,-14002,-14903,-3176,402,827
2358583679,-6220,-13064,-14773,-3312,439,851
2358603668,-6122,-11792,-14983,-3418,437,869
2358623657,-5953,-10878,-15349,-3474,453,859
2358643646,-5412,-9981,-15169,-3497,483,844
2358663635,-5229,-8772,-14818,-3497,464,852
2358683624,-4759,-7335,-14219,-3455,391,870
2358703613,-4629,-6275,-14585,-3402,274,902
2358723602,-4591,-5177,-14490,-3355,211,953
2358743591,-5114,-4381,-14278,-3289,239,983
2358763580,-4796,-3306,-14593,-3245,179,970
2358783569,-5247,-2217,-14052,-3239,68,947
2358803558,-4821,-1012,-13050,-3184,119,924
2358823547,-4693,166,-12791,-3149,23,916
2358843536,-4454,1365,-12434,-3133,-76,924
2358863525,-3842,2651,-12558,-3126,-104,938
2358883514,-4560,3334,-11847,-3101,-209,945
2358903503,-3968,4407,-10440,-2994,-151,900
2358923492,-3184,5797,-9249,-2908,-17,858
2358943481,-2742,7248,-8436,-2855,43,830
2358963470,-3069,8095,-8998,-2814,138,797
2358983459,-2444,8551,-7675,-2722,385,742
2359003448,-2202,9486,-5427,-2595,410,657
2359023437,-1675,10723,-3156,-2397,359,544
2359043426,-1558,11930,-2620,-2187,339,473
2359063415,-1224,12376,-1972,-1941,505,440
2359083404,-980,12896,-1727,-1716,425,393
2359103393,-1297,13506,-336,-1464,400,329
2359123382,-940,14280,1438,-1107,477,246
2359143371,-726,14350,2644,-693,538,185
2359163360,-385,14188,3050,-254,311,113
2359183349,-876,14029,1163,122,111,53
2359203338,-1361,13732,1333,514,154,-35
2359223327,-869,13556,1954,923,115,-140
2359243316,-439,13511,1315,1263,-98,-221
2359263305,-680,13039,258,1526,-117,-260
2359283294,-1005,12467,-1523,1774,-90,-300
2359303283,-1453,11575,-2095,2092,-175,-358
2359323272,-834,11257,-2965,2395,-423,-413
2359343261,-1672,10701,-3605,2625,-522,-421
2359363250,-2282,9680,-4197,2883,-456,-444
2359383239,-1547,8569,-5829,3104,-597,-516
2359403228,-2932,7454,-8068,3204,-818,-619
2359423217,-3365,6315,-8826,3356,-657,-756
2359443206,-2949,5026,-9499,3515,-561,-867
2359463195,-3760,3401,-9727,3589,-643,-963
2359483184,-3761,2077,-10960,3622,-618,-1052
2359503173,-4769,68,-13673,3641,-575,-1093
2359523162,-5385,-2019,-12931,3635,-629,-1141
2359543151,-6203,-3001,-13234,3624,-629,-1189
2359563140,-5940,-4507,-14841,3644,-367,-1193
2359583129,-6042,-6606,-16564,3515,-200,-1122
2359603118,-7162,-8641,-13785,3430,-341,-1112
2359623107,-7150,-8506,-13926,3437,-330,-1199
2359643096,-5460,-9282,-16873,3416,26,-1186
2359663085,-6317,-12438,-18196,3308,-23,-1090
2359683074,-7642,-14108,-15525,3204,-57,-1079
2359703063,-6843,-13412,-14617,3091,164,-1098
2359723052,-3767,-12750,-17469,2915,237,-959
2359743041,-5061,-14126,-16732,2625,-60,-697
2359763031,-6646,-14045,-15464,2430,-7,-494
2359783020,-6437,-12231,-14430,2368,165,-406
2359803009,-5644,-11845,-13417,2331,154,-368
2359822998,-5762,-12719,-13938,2213,-17,-344
2359842987,-6665,-13209,-14237,2127,-88,-331
2359862976,-6905,-13051,-12496,2145,51,-316
2359882965,-6044,-13283,-11000,2157,47,-322
2359902954,-5332,-14147,-10539,2106,-130,-314
2359922943,-5648,-15366,-9266,2000,-268,-286
2359942932,-5752,-15982,-9369,1881,-257,-252
2359962921,-5742,-16161,-8494,1715,-204,-221
2359982910,-5581,-15882,-9571,1516,-201,-201
2360002899,-4594,-15471,-10719,1326,-140,-173
2360022888,-5136,-15678,-9379,1115,-132,-127
2360042877,-5457,-15540,-9046,920,-176,-122
2360062866,-5254,-15451,-9600,704,-128,-106
2360082855,-5394,-15696,-10094,443,-50,-32
2360102844,-5812,-15802,-10971,175,81,61
2360122833,-6110,-15773,-10686,-54,188,112
2360142822,-6224,-15411,-12272,-344,202,138
2360162811,-6431,-15200,-12762,-665,256,181
2360182800,-6601,-15077,-13516,-946,320,220
2360202789,-6530,-14911,-13566,-1196,399,243
2360222778,-6509,-14822,-13221,-1449,473,272
2360242767,-6059,-14634,-13491,-1716,503,326
2360262756,-5803,-14777,-13550,-1973,516,405
2360282745,-5812,-14753,-14580,-2210,525,493
2360302734,-6033,-14836,-14729,-2411,539,559
2360322723,-5781,-14795,-14946,-2607,563,607
2360342712,-5862,-14831,-15191,-2802,534,626
2360362701,-5834,-14913,-15367,-2987,493,611
2360382690,-5627,-14751,-15305,-3145,512,589
2360402679,-5600,-14414,-15250,-3306,482,561
2360422668,-5174,-13650,-15474,-3466,413,543
2360442657,-5052,-12548,-15795,-3597,365,555
2360462646,-4993,-11375,-15983,-3682,351,578
2360482635,-4773,-10365,-16280,-3735,330,583
2360502624,-4643,-9444,-16432,-3761,321,582
2360522613,-4157,-8403,-15439,-3779,370,596
2360542602,-3916,-7062,-13903,-3798,224,589
2360562591,-4166,-5447,-14297,-3812,3,597
2360582580,-4225,-4466,-13810,-3769,-5,631
2360602569,-4088,-3100,-13443,-3753,-44,669
2360622558,-4218,-1920,-13462,-3712,-80,707
2360642547,-3834,-908,-12640,-3645,-49,735
2360662536,-3834,-908,-12640,-3632,-110,754
2360682525,-3694,142,-12307,-3632,-110,754
2360702514,-3624,1038,-11120,-3611,-158,779
2360722503,-3489,2720,-9506,-3556,-131,797
2360742492,-3130,4776,-8850,-3443,-148,799
2360762481,-3394,6716,-8948,-3334,-140,813
2360782470,-3699,8027,-8096,-3203,135,811
2360802459,-3122,9146,-6955,-3039,431,761
2360822448,-2445,10058,-5539,-2871,436,682
2360842437,-2955,11159,-2475,-2687,281,572
2360862426,-2251,12224,-330,-2411,439,467
2360882415,-2092,12532,1305,-2088,563,383
2360902404,-1599,12640,1645,-1742,471,316
2360922393,-1821,12662,1507,-1347,286,260
2360942382,-1956,12918,1624,-865,286,196
2360962371,-1594,13085,2953,-323,371,125
2360982360,-754,13360,3500,186,185,63
2361002349,-556,13627,2064,633,-35,21
2361022338,-954,13552,547,1026,23,-13
2361042327,-1086,13369,706,1391,40,-96
2361062316,-966,13365,1085,1734,-49,-201
2361082305,-682,13167,424,2040,-116,-261
2361102294,-890,12069,309,2342,-142,-267
2361122283,-1104,10885,-966,2653,-323,-282
2361142272,-1672,10036,-3730,2955,-532,-327
2361162261,-2503,8849,-3898,3304,-548,-411
2361182250,-1979,7661,-3670,3664,-619,-528
2361202239,-1971,6277,-6539,3877,-764,-632
2361222229,-2940,4318,-9109,3969,-725,-723
2361242218,-4301,1672,-9760,4124,-692,-850
2361262207,-3280,-162,-10802,4176,-672,-1023
2361282196,-3786,-1518,-14158,4002,-696,-1120
2361302185,-5274,-4003,-15258,3930,-657,-1159
2361322174,-5355,-6127,-15298,3875,-555,-1233
2361342163,-4545,-6429,-16068,3706,-465,-1282
2361362152,-5524,-6691,-18428,3496,-328,-1249
2361382141,-6033,-8557,-16543,3442,-246,-1220
2361402130,-5764,-9545,-13819,3468,-326,-1254
2361422119,-5365,-9323,-15150,3396,-182,-1263
2361442108,-5287,-10733,-18374,3272,81,-1164
2361462097,-6463,-13732,-15960,3180,14,-1055
2361482086,-6250,-13896,-12844,3130,-297,-1054
2361502075,-5107,-12662,-14679,3099,-379,-1064
2361522064,-4420,-13434,-15449,3009,-252,-959
2361542053,-5900,-15405,-13496,2859,-251,-800
2361562042,-6342,-16127,-12790,2773,-413,-707
2361582031,-6116,-15809,-12329,2665,-441,-669
2361602020,-5760,-15388,-12610,2454,-431,-613
2361622009,-5853,-15341,-12527,2276,-406,-485
2361641998,-6752,-15709,-11318,2183,-260,-320
2361661987,-7292,-15888,-10333,2125,-168,-234
2361681976,-6717,-16051,-9196,2019,-121,-221
2361701965,-6021,-15844,-10222,1845,-145,-193
2361721954,-6572,-16133,-9487,1698,-136,-171
2361741943,-7167,-16791,-8354,1576,-180,-189
2361761932,-7017,-16668,-9211,1389,-208,-253
2361781921,-6091,-16073,-9462,1182,-50,-257
2361801910,-6362,-15946,-8697,970,-10,-223
2361821899,-6243,-15680,-9483,730,-16,-199
2361841888,-5528,-15245,-10945,488,91,-141
2361861877,-5291,-14918,-10936,254,242,-30
2361881866,-5960,-14671,-10151,19,302,56
2361901855,-5856,-14351,-10568,-213,276,65
2361921844,-5380,-14484,-11734,-474,306,85
2361941833,-5576,-14848,-11699,-729,388,168
2361961822,-6322,-15109,-11227,-969,406,242
2361981811,-6274,-15204,-11668,-1210,372,275
2362001800,-5985,-15382,-12629,-1443,421,340
2362021789,-6024,-15719,-11952,-1655,529,436
2362041778,-6389,-15621,-12015,-1858,514,495
2362061767,-6311,-15693,-11791,-2044,484,507
2362081756,-5956,-15725,-11824,-2238,424,526
2362101745,-5866,-15506,-11780,-2400,405,579
2362121734,-6203,-15071,-12383,-2532,302,615
2362141723,-6139,-14834,-13272,-2648,325,638
2362161712,-6106,-15009,-14070,-2748,419,660
2362181701,-6207,-15134,-14108,-2865,451,661
2362201690,-5812,-14603,-14759,-3012,449,642
2362221679,-5753,-13977,-14670,-3168,402,638
2362241668,-5676,-13153,-15529,-3307,375,652
2362261657,-5524,-12251,-15415,-3418,389,674
2362281646,-5335,-10987,-15490,-3494,374,700
2362301635,-5066,-9384,-14585,-3523,368,724
2362321624,-4823,-7424,-13910,-3531,337,740
2362341613,-4784,-6020,-14488,-3508,319,743
2362361602,-4434,-5085,-14331,-3450,329,731
2362381591,-4860,-4544,-13471,-3396,293,700
2362401580,-4378,-3202,-13075,-3343,265,631
2362421569,-3990,-1939,-12356,-3267,190,579
2362441558,-3728,-762,-13033,-3166,114,550
2362461547,-3671,-315,-12501,-3041,128,541
2362481536,-3755,399,-12179,-2970,108,520
2362501525,-3430,1880,-11583,-2912,123,480
2362521514,-2929,3779,-11057,-2868,95,464
2362541503,-2852,5455,-11207,-2846,72,493
2362561492,-2736,6256,-10845,-2764,66,549
2362581481,-3108,7513,-10717,-2709,57,575
2362601470,-3681,8439,-9080,-2678,305,556
2362621459,-2899,9313,-7186,-2596,429,487
2362641448,-2948,10514,-6112,-2535,291,442
2362661437,-3506,11243,-5546,-2485,436,430
2362681427,-3531,11535,-4899,-2367,670,402
2362701416,-3116,11921,-2315,-2166,677,332
2362721405,-2631,12904,-647,-1934,449,245
2362741394,-2332,13836,500,-1579,390,194
2362761383,-1850,13878,1127,-1124,438,164
2362781372,-829,13960,26,-752,274,154
2362801361,-1715,13704,-481,-441,46,141
2362821350,-1969,13803,206,-40,105,90
2362841339,-871,14009,197,366,219,48
2362861328,-725,13689,375,728,31,18
2362881317,-1175,13210,557,1069,-165,-35
2362901306,-971,12892,-467,1389,-206,-107
2362921295,-1303,12407,-1227,1699,-184,-149
2362941284,-1504,11520,-1075,2053,-252,-172
2362961273,-1253,10709,-1668,2408,-515,-183
2362981262,-1551,9899,-4610,2704,-715,-164
2363001251,-1942,8715,-5119,3014,-674,-167
2363021240,-1593,7452,-5305,3261,-843,-243
2363041229,-2967,6503,-7061,3343,-1065,-386
2363061218,-3286,5701,-8570,3360,-989,-590
2363081207,-3455,4752,-11965,3337,-893,-732
2363101196,-3929,2997,-11758,3475,-903,-828
2363121185,-3456,2169,-10621,3531,-903,-933
2363141174,-4606,955,-15546,3467,-671,-967
2363161163,-4908,-769,-13351,3499,-457,-966
2363181152,-5507,-2693,-11890,3479,-795,-1021
2363201141,-5803,-3273,-16432,3394,-569,-1081
2363221130,-5882,-4588,-17612,3290,-80,-1037
2363241119,-6797,-6746,-14450,3249,-212,-1009
2363261108,-6098,-7808,-15605,3243,-375,-1084
2363281097,-6861,-8290,-17180,3125,-11,-1137
2363301086,-6733,-9265,-15848,3013,275,-1114
2363321075,-6812,-10960,-13778,2942,-29,-1085
2363341064,-6326,-11397,-16826,2847,-218,-1054
2363361053,-6340,-11707,-17095,2789,52,-944
2363381042,-6246,-12572,-14920,2759,160,-802
2363401031,-5638,-13425,-11441,2739,-189,-702
2363421020,-5015,-13120,-14532,2633,-343,-612
2363441009,-5938,-13458,-14981,2498,-162,-496
2363460998,-6092,-14618,-11755,2408,-42,-397
2363480987,-6205,-15267,-10897,2286,-450,-360
2363500976,-6411,-14684,-12892,2113,-728,-386
2363520965,-6396,-14351,-12137,1984,-591,-382
2363540954,-6862,-14245,-11150,1855,-548,-365
2363560943,-6862,-14196,-9462,1812,-565,-375
2363580932,-6587,-14259,-9369,1867,-561,-407
2363600921,-6652,-14669,-9814,1914,-604,-461
2363620910,-6816,-15399,-8171,1888,-595,-514
2363640899,-6343,-15960,-5399,1841,-472,-517
2363660888,-6300,-16431,-6116,1739,-476,-486
2363680877,-6410,-16501,-8484,1564,-523,-438
2363700866,-6222,-17103,-7349,1330,-396,-341
2363720855,-6447,-17147,-8084,982,-276,-203
2363740844,-6901,-16949,-9026,569,-186,-118
2363760833,-6583,-16500,-9585,184,-42,-45
2363780822,-6777,-16176,-10684,-175,130,53
2363800811,-6864,-15818,-11005,-475,227,129
2363820800,-6968,-15914,-11868,-793,259,202
2363840789,-6932,-15790,-12855,-1158,434,316
2363860778,-6983,-15529,-13644,-1497,566,419
2363880767,-7260,-15144,-13753,-1780,598,452
2363900756,-6811,-14752,-14077,-2048,586,459
2363920745,-6596,-14972,-13879,-2288,603,505
2363940734,-6659,-15500,-13990,-2523,617,572
2363960723,-6525,-15847,-13992,-2757,653,633
2363980712,-6616,-16241,-14413,-3009,674,680
2364000701,-6697,-16188,-14744,-3239,674,705
2364020690,-6545,-15670,-15046,-3426,645,699
2364040679,-6157,-14745,-15072,-3579,644,688
2364060668,-6262,-14072,-15264,-3717,565,680
2364080657,-6503,-13347,-15509,-3799,501,676
2364100646,-6135,-12524,-14993,-3815,570,676
2364120635,-6113,-11665,-15315,-3852,517,668
2364140625,-5808,-10653,-14960,-3854,453,664
2364160614,-5513,-9385,-14659,-3850,475,676
2364180603,-5438,-7932,-14135,-3865,414,652
2364200592,-5355,-6706,-13959,-3849,342,614
2364220581,-4959,-5274,-13348,-3826,271,600
2364240570,-5235,-4314,-14907,-3764,223,591
2364260559,-4754,-3688,-14063,-3636,344,575
2364280548,-3977,-2165,-12458,-3589,312,580
2364300537,-3975,19,-11000,-3571,108,611
2364320526,-3892,2042,-11447,-3547,48,660
2364340515,-3839,3430,-10520,-3463,136,709
2364360504,-3294,4722,-8588,-3304,99,707
2364380493,-3603,5473,-8576,-3150,-20,687
2364400482,-3161,6814,-7315,-3002,30,648
2364420471,-3354,7770,-7399,-2869,249,603
2364440460,-2494,8417,-5955,-2669,429,535
2364460449,-2006,9410,-4713,-2487,296,477
2364480438,-1931,10693,-2905,-2288,186,425
2364500427,-1575,11976,-1034,-2041,300,381
2364520416,-1418,12710,-156,-1727,355,332
2364540405,-628,13164,-428,-1354,343,277
2364560394,-1164,13533,181,-966,212,222
2364580383,-1362,14014,1763,-506,164,153
2364600372,-1180,14237,2862,-27,136,84
2364620361,-850,13935,2744,443,74,24
2364640350,-1207,13230,2083,856,30,-42
2364660339,-1311,12653,1137,1242,-71,-126
2364680328,-1562,12213,683,1624,-201,-209
2364700317,-1524,11833,668,2000,-297,-282
2364720306,-1112,11271,-476,2339,-416,-341
2364740295,-1280,10269,-1508,2636,-599,-420
2364760284,-1006,9179,-4548,2916,-685,-513
2364780273,-2381,7459,-5850,3172,-742,-618
2364800262,-3153,6293,-5837,3440,-796,-791
2364820251,-1767,5376,-8546,3571,-674,-916
2364840240,-3098,3049,-11311,3597,-766,-938
2364860229,-4391,1244,-10776,3686,-996,-1026
2364880218,-4547,538,-11542,3732,-881,-1157
2364900207,-3965,-469,-13433,3724,-597,-1199
2364920196,-5674,-2728,-15365,3625,-542,-1190
2364940185,-6704,-4274,-12787,3637,-578,-1270
2364960174,-7142,-4548,-12461,3645,-273,-1344
2364980163,-4958,-5362,-17010,3640,167,-1282
2365000152,-6645,-8143,-14196,3614,-7,-1174
2365020141,-7688,-10402,-13749,3702,-266,-1184
2365040130,-7095,-11494,-15092,3787,16,-1235
2365060119,-6545,-13863,-15422,3699,296,-1208
2365080108,-6209,-16248,-13631,3549,-59,-1142
2365100097,-6792,-17420,-13177,3420,-285,-1079
2365120086,-6443,-17050,-13734,3243,39,-980
2365140075,-5013,-16273,-14955,3031,253,-804
2365160064,-5473,-16482,-14279,2851,-19,-589
2365180053,-6475,-16102,-14785,2708,-237,-465
2365200042,-6216,-15553,-14900,2538,-72,-438
2365220031,-5798,-15216,-12306,2295,-72,-422
2365240020,-5898,-14604,-10697,2107,-283,-384
2365260009,-6176,-13693,-12177,2012,-382,-344
2365279998,-6273,-13646,-11988,1948,-301,-307
2365299987,-6898,-13976,-11770,1886,-234,-276
2365319976,-7144,-14965,-9353,1844,-223,-270
2365339965,-6872,-15530,-10255,1775,-402,-302
2365359954,-6797,-16574,-10077,1658,-371,-317
2365379943,-6666,-17676,-9103,1408,-269,-279
2365399932,-6693,-17910,-9806,1009,-249,-231
2365419921,-6390,-17292,-10856,546,-180,-187
2365439910,-6123,-16658,-11924,106,-12,-90
2365459899,-6785,-16143,-11777,-257,149,0
2365479888,-6352,-15232,-12517,-592,200,39
2365499877,-6183,-14611,-12781,-887,198,105
2365519866,-6508,-14209,-13160,-1132,255,208
2365539855,-6771,-14196,-12624,-1345,303,292
2365559844,-6721,-14242,-12835,-1576,284,357
2365579833,-6644,-14334,-13132,-1815,286,417
2365599822,-6725,-14581,-13164,-2067,357,493
2365619812,-6930,-14992,-13495,-2307,376,547
2365639801,-6846,-15325,-13779,-2523,376,588
2365659790,-6712,-15304,-13852,-2725,376,616
2365679779,-6693,-15219,-13774,-2907,361,625
2365699768,-6642,-15230,-13749,-3061,291,628
2365719757,-6223,-14829,-13975,-3188,217,649
2365739746,-6349,-14506,-14439,-3282,182,688
2365759735,-6222,-14101,-14066,-3336,229,719
2365779724,-6007,-13061,-14064,-3391,194,730
2365799713,-5872,-11732,-14193,-3426,147,736
2365819702,-5489,-10573,-14594,-3424,237,743
2365839691,-5493,-9450,-14507,-3406,275,743
2365859680,-5416,-8354,-13957,-3329,274,731
2365879669,-4370,-7014,-13973,-3226,258,712
2365899658,-4916,-6228,-14394,-3183,369,712
2365919647,-4972,-5283,-14260,-3151,474,685
2365939636,-4455,-3433,-14498,-3171,326,657
2365959625,-4434,-1681,-15091,-3190,108,676
2365979614,-4481,-54,-14945,-3182,128,727
2365999603,-4896,835,-14154,-3167,191,760
2366019592,-4754,2292,-12066,-3146,102,736
2366039581,-4250,4296,-10971,-3148,98,698
2366059570,-4172,5000,-11221,-3127,233,678
2366079559,-3567,5646,-9339,-3057,267,645
2366099548,-3718,6119,-9738,-3032,287,607
2366119537,-3449,6494,-9090,-2969,276,560
2366139526,-3170,7340,-7010,-2896,278,526
2366159515,-3267,8402,-5497,-2802,328,484
2366179504,-3020,9081,-5108,-2626,483,436
2366199493,-2742,9381,-3833,-2385,554,380
2366219482,-2763,10109,-2450,-2076,356,305
2366239471,-2745,11620,-881,-1667,216,244
2366259460,-2322,12821,-507,-1216,263,230
2366279449,-1906,13406,775,-747,224,232
2366299438,-1852,13853,1016,-335,17,214
2366319427,-1740,13891,-497,11,-14,197
2366339416,-2338,13355,188,367,38,150
2366359405,-1999,13157,52,724,-52,55
2366379394,-1895,12910,-289,1034,-174,-31
2366399383,-1703,12493,-1024,1310,-251,-89
2366419372,-1687,11864,-1995,1580,-303,-108
2366439361,-2121,11153,-2930,1888,-471,-133
2366459350,-1756,10581,-3164,2260,-650,-191
2366479339,-1140,9803,-4095,2606,-792,-263
2366499328,-1188,8658,-7271,2822,-901,-318
2366519317,-3039,7186,-8215,3019,-958,-430
2366539306,-3047,6683,-8999,3086,-813,-614
2366559295,-3064,6384,-11305,3095,-708,-757
2366579284,-3312,5512,-11165,3178,-613,-810
2366599273,-4366,4145,-12380,3169,-461,-844
2366619262,-4996,2989,-12152,3125,-375,-901
2366639251,-5316,1869,-12229,3127,-415,-984
2366659240,-5257,801,-11516,3172,-445,-1033
2366679229,-5931,-271,-11994,3181,-364,-1041
2366699218,-6253,-1358,-13492,3202,-230,-1040
2366719207,-7076,-3755,-14428,3304,-183,-1075
2366739196,-6345,-5650,-13713,3383,-243,-1164
2366759185,-6609,-6304,-12672,3302,-334,-1214
2366779174,-5935,-7666,-13389,3251,-358,-1246
2366799163,-6856,-10994,-15096,3231,-617,-1255
2366819152,-7272,-14182,-15249,3168,-433,-1196
2366839141,-7131,-15148,-13172,2998,-111,-1040
2366859130,-6716,-14300,-10621,2902,-311,-946
2366879119,-5165,-12673,-15231,2849,-474,-875
2366899108,-6773,-14047,-18287,2846,-359,-783
2366919097,-7769,-15936,-12818,2823,-182,-789
2366939086,-7256,-14903,-8582,2680,-300,-870
2366959075,-6475,-13234,-10240,2602,-427,-879
2366979064,-5999,-13712,-12931,2642,-337,-815
2366999053,-6925,-16115,-10603,2688,-102,-694
2367019042,-7447,-17101,-9557,2648,-114,-638
2367039031,-7268,-16504,-9937,2587,-149,-669
2367059020,-6451,-16483,-10466,2483,-182,-681
2367079010,-6790,-17798,-9306,2345,-86,-616
2367098999,-6839,-18072,-8756,2148,74,-525
2367118988,-6258,-17388,-9225,1875,110,-468
2367138977,-5648,-16947,-9600,1586,78,-400
2367158966,-6049,-17060,-8760,1342,121,-305
2367178955,-6286,-16883,-8412,1120,193,-228
2367198944,-6245,-16337,-8908,840,230,-155
2367218933,-6068,-15687,-9585,557,217,-89
2367238922,-6155,-15290,-9598,301,276,-12
2367258911,-6391,-15316,-9224,69,319,58
2367278900,-6485,-15463,-8922,-196,271,106
2367298889,-6154,-15472,-9964,-509,231,154
2367318878,-6313,-15673,-10350,-810,277,222
2367338867,-6502,-15920,-10449,-1066,318,270
2367358856,-6187,-16022,-10680,-1334,299,285
2367378845,-6155,-16111,-11288,-1615,303,296
2367398834,-6094,-16541,-11927,-1861,395,322
2367418823,-5631,-16915,-11160,-2110,454,351
2367438812,-5454,-17232,-11972,-2374,438,389
2367458801,-5431,-17305,-13157,-2671,453,443
2367478790,-5549,-17468,-13899,-2946,511,503
2367498779,-5555,-17457,-14251,-3159,556,552
2367518768,-5563,-16925,-14626,-3336,530,556
2367538757,-5591,-16064,-14048,-3484,453,517
2367558746,-5308,-15053,-14255,-3602,431,502
2367578735,-5136,-14490,-13783,-3688,402,520
2367598724,-5142,-13406,-14565,-3775,357,560
2367618713,-5465,-12455,-14422,-3825,415,606
2367638702,-5469,-11741,-14641,-3829,433,605
2367658691,-5518,-11071,-15499,-3829,381,575
2367678680,-5166,-10154,-15092,-3805,422,518
2367698669,-4393,-8719,-13983,-3828,427,452
2367718658,-3561,-6593,-14521,-3886,248,407
2367738647,-3595,-4930,-14039,-3887,120,401
2367758636,-3451,-3349,-14253,-3824,75,395
2367778625,-3436,-2332,-14435,-3755,168,393
2367798614,-2845,-1144,-12582,-3692,244,384
2367818603,-2983,45,-11775,-3630,187,375
2367838592,-2453,1538,-9864,-3524,46,346
2367858581,-3355,2309,-11588,-3445,121,359
2367878570,-3268,2604,-8323,-3248,272,333
2367898559,-3413,4345,-7194,-3128,362,287
2367918548,-3630,5968,-6657,-2986,420,239
2367938537,-3702,7292,-5492,-2730,434,210
2367958526,-3845,8253,-4757,-2406,452,202
2367978515,-3715,9213,-4671,-2055,426,193
2367998504,-3515,10431,-3321,-1672,457,202
2368018493,-3379,11455,-2329,-1321,534,210
2368038482,-2687,12625,-1166,-976,459,208
2368058471,-2576,13380,-1553,-666,309,210
2368078460,-2645,13825,-2218,-393,174,187
2368098449,-2584,14069,-1921,-88,211,150
2368118438,-2678,13929,-1310,252,238,105
2368138427,-2430,13694,-922,587,80,38
2368158416,-2294,13266,-1391,913,-94,-5
2368178405,-2669,12471,-1462,1209,-166,-24
2368198394,-2499,11656,-1796,1484,-312,-48
2368218383,-2120,11030,-3255,1746,-557,-60
2368238372,-2354,10233,-4914,1992,-699,-50
2368258361,-2305,9011,-4396,2260,-753,-74
2368278350,-1959,8040,-3775,2513,-995,-148
2368298339,-2088,7175,-6887,2757,-1196,-237
2368318328,-2303,5822,-9783,2981,-870,-275
2368338317,-2825,3836,-9567,3125,-694,-341
2368358306,-3318,2902,-9643,3264,-993,-534
2368378295,-4015,2594,-10837,3434,-950,-711
2368398284,-3657,1824,-11382,3553,-581,-761
2368418273,-4536,-491,-11165,3657,-558,-773
2368438262,-4934,-2456,-10040,3816,-845,-918
2368458251,-5902,-2961,-12869,3858,-654,-1084
2368478240,-6325,-4450,-15611,3923,-186,-1136
2368498229,-6021,-7825,-12178,4033,-244,-1172
2368518218,-7842,-9698,-13029,3994,-472,-1259
2368538208,-6417,-10980,-15571,3844,-168,-1301
2368558197,-7173,-14214,-15321,3589,107,-1147
2368578186,-6331,-16487,-11900,3470,-325,-1006
2368598175,-6643,-15089,-17141,3354,-629,-933
2368618164,-7726,-15077,-16574,3328,-310,-901
2368638153,-6700,-16282,-13476,3230,-162,-904
2368658142,-5650,-17349,-10270,3088,-488,-877
2368678131,-5831,-16840,-12201,3005,-676,-775
2368698120,-6939,-17388,-12895,2924,-323,-642
2368718109,-6795,-17600,-11256,2740,-92,-529
2368738098,-6354,-16546,-10495,2570,-110,-434
2368758087,-6301,-15577,-8606,2572,-249,-400
2368778076,-7314,-16502,-9919,2667,-358,-474
2368798065,-6715,-18204,-10144,2637,-210,-565
2368818054,-5614,-18899,-7914,2380,-86,-561
2368838043,-5618,-18300,-7522,2032,-93,-457
2368858032,-5649,-17734,-8579,1743,-29,-347
2368878021,-5945,-17669,-8440,1451,77,-234
2368898010,-6681,-17747,-9209,1110,90,-171
2368917999,-6703,-17385,-11527,735,102,-165
2368937988,-6211,-16413,-11519,340,290,-109
2368957977,-6458,-15537,-10517,-30,368,-14
2368977966,-6410,-15206,-10752,-317,328,46
2368997955,-6285,-15193,-12341,-597,298,118
2369017944,-6535,-15391,-12958,-917,398,247
2369037933,-7217,-15258,-12436,-1237,486,357
2369057922,-7174,-15282,-12154,-1540,473,374
2369077911,-6798,-15870,-12424,-1865,422,387
2369097900,-6863,-16625,-13146,-2220,393,466
2369117889,-7318,-17192,-12883,-2531,409,571
2369137878,-7409,-17367,-13118,-2797,406,639
2369157867,-7198,-17516,-13598,-3039,408,694
2369177856,-7048,-17819,-13981,-3256,502,766
2369197845,-7159,-17621,-14257,-3458,510,808
2369217834,-7076,-16958,-14391,-3634,478,834
2369237823,-6758,-15959,-14390,-3766,499,851
2369257812,-6798,-15380,-15102,-3871,460,849
2369277801,-6720,-14664,-15111,-3963,450,835
2369297790,-6533,-13572,-15074,-4046,497,824
2369317779,-5902,-11980,-14654,-4097,471,815
2369337768,-5723,-10638,-14949,-4136,416,824
2369357757,-5500,-9677,-14951,-4133,448,827
2369377746,-5082,-8727,-15339,-4110,442,819
2369397735,-4663,-7502,-14665,-4096,413,808
2369417724,-4721,-6085,-14638,-4071,410,785
2369437713,-3998,-4591,-12817,-4037,541,760
2369457702,-3815,-2704,-13461,-4070,414,748
2369477691,-4222,-1830,-12428,-4026,387,734
2369497680,-3637,-244,-10583,-3908,379,706
2369517669,-3642,1542,-10369,-3799,345,692
2369537658,-3823,2346,-9037,-3611,302,660
2369557647,-3016,4278,-7086,-3410,211,620
2369577636,-3059,6138,-7037,-3323,172,620
2369597625,-2818,7388,-6201,-3209,223,610
2369617614,-2778,8411,-4538,-3092,259,569
2369637603,-2687,9657,-2956,-2919,294,495
2369657592,-2234,10894,-848,-2659,324,419
2369677581,-2059,11711,1191,-2351,151,359
2369697570,-1351,12801,2625,-1950,-31,319
2369717559,-1243,13595,2780,-1455,-123,294
2369737548,-1336,13715,2842,-867,-158,256
2369757537,-1262,13537,2651,-261,-171,186
2369777526,-1174,13376,3828,331,-177,89
2369797515,-1083,13322,4863,857,-221,-2
2369817504,-470,13018,2846,1284,-217,-48
2369837493,-807,12100,1267,1613,-194,-77
2369857482,-1557,11486,979,1922,-226,-168
2369877471,-1446,11120,-303,2266,-261,-300
2369897460,-502,10532,-1230,2599,-313,-386
2369917449,-1488,9055,-2724,2895,-472,-449
2369937438,-2371,7810,-2915,3260,-555,-574
2369957427,-1629,7120,-5490,3543,-496,-699
2369977416,-1775,5822,-7698,3723,-457,-735
2369997406,-3065,3952,-8878,3896,-695,-824
2370017395,-3804,2959,-9425,4005,-785,-1004
2370037384,-3103,2182,-10836,4051,-547,-1141
2370057373,-3460,-127,-11469,4069,-646,-1189
2370077362,-4960,-2468,-11602,4066,-1048,-1280
2370097351,-6305,-3579,-13109,4068,-813,-1391
2370117340,-5787,-5037,-15321,4138,-330,-1412
2370137329,-5501,-7979,-13721,4168,-488,-1376
2370157318,-8242,-10702,-13456,4106,-761,-1399
2370177307,-7844,-11760,-16148,4011,-334,-1433
2370197296,-6709,-13268,-14894,3831,-137,-1393
2370217285,-7015,-14886,-12296,3728,-527,-1344
2370237274,-7478,-16028,-14224,3709,-728,-1338
2370257263,-7016,-17453,-15989,3622,-372,-1301
2370277252,-7480,-19485,-13226,3435,-211,-1245
2370297241,-6973,-19465,-11112,3256,-285,-1171
2370317230,-6255,-18436,-11675,3123,-300,-1048
2370337219,-5696,-18040,-13497,3004,-156,-904
2370357208,-6363,-18418,-11562,2799,-128,-770
2370377197,-6792,-17545,-11494,2650,-115,-664
2370397186,-7312,-16860,-10465,2570,-12,-620
2370417175,-7066,-17051,-10291,2440,-31,-627
2370437164,-6844,-17688,-10631,2218,-110,-590
2370457153,-7055,-17794,-10704,1941,-156,-503
2370477142,-7062,-17308,-10090,1703,-16,-382
2370497131,-7265,-16622,-9783,1498,52,-292
2370517120,-7298,-16068,-10247,1290,-13,-266
2370537109,-7028,-15794,-10938,1056,-42,-243
2370557098,-7020,-15515,-10231,811,55,-186
2370577087,-7204,-15339,-9882,560,77,-138
2370597076,-6594,-15343,-10056,271,70,-88
2370617065,-6589,-15470,-10787,-74,67,3
2370637054,-6740,-15654,-11251,-424,69,100
2370657043,-7313,-15856,-11320,-785,72,179
2370677032,-7028,-16085,-11170,-1147,125,247
2370697021,-6848,-16544,-12018,-1508,156,341
2370717010,-7164,-17078,-13118,-1881,190,461
2370736999,-7558,-17448,-13770,-2215,294,577
2370756988,-7264,-17336,-14243,-2507,442,664
2370776977,-6930,-17207,-14451,-2791,539,714
2370796966,-6698,-17222,-14571,-3053,537,740
2370816955,-6373,-17143,-14352,-3277,552,786
2370836944,-6453,-16852,-14239,-3477,580,855
2370856933,-6273,-16648,-14603,-3665,591,922
2370876922,-6258,-16351,-14925,-3834,543,977
2370896911,-6637,-15541,-15334,-3964,514,1008
2370916900,-6743,-14501,-15049,-4051,573,999
2370936889,-6265,-13543,-14929,-4126,575,942
2370956878,-5958,-12674,-15250,-4203,448,879
2370976867,-6105,-11708,-14640,-4235,366,845
2370996856,-5388,-9981,-15268,-4236,375,829
2371016845,-5366,-8806,-14335,-4221,318,823
2371036834,-5072,-7219,-14229,-4187,241,818
2371056823,-4364,-5212,-13311,-4128,309,833
2371076812,-4320,-3517,-12342,-4046,313,853
2371096801,-4336,-2145,-11824,-3950,292,850
2371116790,-4190,-1199,-11169,-3837,342,810
2371136779,-3575,37,-9340,-3696,300,754
2371156768,-3403,1625,-8063,-3518,-1,721
2371176757,-3249,3652,-6926,-3308,-177,705
2371196746,-3141,5376,-5737,-3117,-57,707
2371216735,-3094,6564,-5366,-2883,-7,683
2371236724,-2211,7751,-5232,-2615,6,644
2371256713,-2188,8842,-4962,-2382,-28,615
2371276702,-2171,9977,-3812,-2110,-20,567
2371296691,-1767,11294,-2377,-1822,-2,505
2371316680,-1583,12155,-2060,-1514,-36,446
2371336669,-1329,12844,-1995,-1188,-55,395
2371356658,-1643,13174,-1694,-865,-93,359
2371376647,-2066,13569,-573,-509,-121,300
2371396636,-2099,13953,-160,-163,-64,228
2371416625,-2141,13913,-1116,140,-67,167
2371436614,-2625,13518,-792,454,-79,90
2371456604,-2662,13277,-1054,771,-76,-6
2371476593,-2768,13069,-1239,1067,-156,-92
2371496582,-2551,12675,-453,1388,-307,-170
2371516571,-2806,12189,-939,1699,-432,-231
2371536560,-2764,11359,-1928,2049,-389,-288
2371556549,-1871,10247,-3440,2367,-329,-326
2371576538,-2503,8874,-4726,2591,-446,-358
2371596527,-2334,8150,-4734,2854,-504,-450
2371616516,-1868,7468,-7334,3050,-601,-547
2371636505,-2519,6139,-7931,3262,-669,-639
2371656494,-3055,4722,-9094,3458,-722,-762
2371676483,-3213,3398,-9014,3601,-633,-891
2371696472,-3230,1933,-10512,3633,-616,-957
2371716461,-5031,-344,-11710,3667,-667,-998
2371736450,-5060,-2136,-11980,3709,-550,-1057
2371756439,-5670,-3420,-13856,3696,-452,-1089
2371776428,-6151,-5173,-12866,3743,-431,-1124
2371796417,-6002,-7065,-13072,3787,-628,-1191
2371816406,-6834,-8529,-15303,3724,-512,-1248
2371836395,-7065,-10462,-14237,3644,-196,-1258
2371856384,-6997,-12294,-12375,3593,-331,-1257
2371876373,-7635,-13043,-14255,3552,-421,-1289
2371896362,-6239,-13546,-14529,3494,-147,-1301
2371916351,-6187,-14441,-15685,3347,-184,-1274
2371936340,-6377,-15942,-13303,3246,-453,-1234
2371956329,-7100,-16832,-12673,3144,-647,-1214
2371976318,-6427,-16620,-13433,3000,-549,-1203
2371996307,-6584,-16944,-12963,2843,-400,-1136
2372016296,-5815,-17841,-10766,2723,-248,-1011
2372036285,-5789,-17346,-13282,2461,-261,-827
2372056274,-6556,-16900,-12159,2215,-186,-686
2372076263,-7007,-16362,-11432,2019,-191,-612
2372096252,-7336,-16171,-11250,1846,-221,-604
2372116241,-7255,-16233,-11048,1639,-261,-609
2372136230,-7085,-15725,-10816,1443,-216,-561
2372156219,-7147,-15272,-8803,1328,-64,-477
2372176208,-7297,-15003,-8808,1229,-62,-404
2372196197,-7205,-15351,-8874,1138,-86,-364
2372216186,-6867,-15427,-8633,1077,-11,-330
2372236175,-6576,-15420,-7316,1008,19,-306
2372256164,-6731,-15110,-6227,929,-42,-316
2372276153,-5921,-15179,-6271,836,-95,-311
2372296142,-5070,-14915,-7091,736,-68,-249
2372316131,-5431,-15341,-5911,635,44,-171
2372336120,-5386,-15763,-4847,516,110,-103
2372356109,-5229,-15671,-4550,392,96,-56
2372376098,-5169,-15585,-4186,315,46,-50
2372396087,-5033,-15385,-4935,260,-51,-63
2372416076,-5036,-15952,-4551,176,-29,-47
2372436065,-4343,-16037,-4778,63,107,18
2372456054,-3961,-15883,-5266,-61,107,87
2372476043,-4669,-16437,-5360,-189,33,138
2372496032,-4684,-16644,-6270,-336,125,198
2372516021,-5101,-17073,-5913,-517,321,256
2372536010,-5523,-17406,-6132,-765,436,301
2372555999,-4892,-17039,-6908,-1033,499,331
2372575988,-5406,-16611,-8087,-1259,501,345
2372595977,-5644,-16694,-9041,-1427,526,342
2372615966,-5241,-16655,-9249,-1604,526,346
2372635955,-5135,-16356,-10766,-1785,489,377
2372655944,-5411,-16136,-10577,-1930,450,397
2372675933,-5221,-15687,-10063,-2062,381,399
2372695922,-5173,-15237,-10798,-2178,333,412
2372715911,-5080,-14879,-10525,-2261,353,430
2372735900,-5190,-14775,-10527,-2345,296,435
2372755889,-5271,-14509,-10847,-2437,207,424
2372775878,-5060,-14097,-10507,-2507,109,406
2372795867,-5493,-13936,-11295,-2559,-8,390
2372815856,-5485,-13684,-11996,-2611,2,371
2372835845,-5286,-13509,-12335,-2653,131,360
2372855834,-5162,-13568,-12643,-2691,137,354
2372875823,-4903,-12950,-13505,-2783,117,376
2372895812,-4673,-11803,-14868,-2884,156,424
2372915802,-4850,-10782,-15320,-2970,154,482
2372935791,-5118,-9546,-15336,-3067,87,516
2372955780,-5173,-8112,-15609,-3129,64,534
2372975769,-4669,-7064,-16782,-3152,153,544
2372995758,-5233,-6616,-16602,-3176,214,539
2373015747,-4968,-5880,-16075,-3205,240,512
2373035736,-4451,-4342,-14565,-3232,209,506
2373055725,-4920,-2709,-14915,-3268,122,521
2373075714,-4611,-1322,-13425,-3253,142,512
2373095703,-4711,-159,-14035,-3253,98,486
2373115692,-4722,886,-14212,-3218,189,432
2373135681,-4353,1777,-12402,-3106,243,367
2373155670,-4695,2892,-12896,-2967,87,299
2373175659,-4089,3791,-10077,-2811,188,230
2373195648,-3709,5631,-10512,-2737,178,164
2373215637,-3795,6213,-10782,-2616,366,132
2373235626,-3245,6450,-8846,-2433,387,93
2373255615,-3581,7306,-8905,-2322,136,38
2373275604,-3838,7974,-8787,-2222,234,-13
2373295593,-3899,8518,-7469,-2087,477,-46
2373315582,-3476,9253,-6758,-1950,511,-65
2373335571,-3624,9692,-5662,-1768,361,-65
2373355560,-4025,10342,-5442,-1554,331,-60
2373375549,-3730,10837,-4206,-1357,329,-59
2373395538,-3794,11513,-3624,-1165,204,-49
2373415527,-3542,12238,-3660,-936,54,-36
2373435516,-3750,12762,-4786,-725,-1,-16
2373455505,-4294,12400,-4765,-483,53,-20
2373475494,-4068,12071,-4143,-231,24,-77
2373495483,-3993,12483,-3698,-11,-141,-162
2373515472,-4300,12789,-4453,211,-180,-230
2373535461,-4818,12446,-5016,460,-140,-306
2373555450,-5170,12048,-4822,724,-177,-431
2373575439,-5160,11827,-4592,974,-289,-587
2373595428,-5105,11816,-5487,1236,-354,-700
2373615417,-5060,11086,-5153,1536,-349,-759
2373635406,-4988,10110,-4810,1739,-396,-818
2373655395,-5199,9082,-6119,1917,-561,-885
2373675384,-5350,8033,-6222,2137,-689,-975
2373695373,-5202,7315,-7674,2302,-625,-1041
2373715362,-4963,6609,-6134,2445,-526,-1079
2373735351,-5391,5819,-6706,2601,-554,-1114
2373755340,-5369,4953,-7564,2859,-557,-1140
2373775329,-4955,3576,-8168,3086,-401,-1119
2373795318,-5685,1843,-7487,3241,-396,-1079
2373815307,-6058,87,-7754,3425,-473,-1086
2373835296,-6371,-1357,-8518,3561,-466,-1112
2373855285,-6904,-2619,-6266,3659,-227,-1135
2373875274,-6216,-3784,-7340,3770,-162,-1150
2373895263,-4838,-4579,-14112,3930,-373,-1173
2373915252,-7199,-7910,-13520,4246,-335,-1242
2373935241,-8427,-10990,-5059,4463,-324,-1450
2373955230,-7787,-12045,-10118,4404,-405,-1643
2373975219,-6732,-14256,-14908,4395,-321,-1684
2373995208,-7819,-18192,-12748,4146,-276,-1603
2374015197,-8025,-20736,-9003,3771,-22,-1432
2374035186,-8047,-21469,-9812,3474,64,-1271
2374055175,-7917,-20593,-16749,3251,54,-1160
2374075164,-8553,-21894,-14313,2947,335,-1045
2374095153,-8795,-22571,-12658,2440,390,-932
2374115142,-8865,-20195,-15212,1925,192,-935
2374135131,-8918,-18386,-13957,1565,151,-1002
2374155120,-8531,-17444,-14973,1186,170,-994
2374175109,-8333,-16336,-15448,799,198,-872
2374195098,-8285,-15167,-14806,488,326,-678
2374215087,-8229,-13446,-14492,240,436,-477
2374235076,-8092,-12194,-14033,37,433,-339
2374255065,-8183,-11630,-13607,-136,368,-268
2374275054,-8075,-11689,-13221,-283,306,-229
2374295043,-7871,-11973,-13142,-427,290,-181
2374315032,-7911,-12309,-12062,-587,291,-117
2374335021,-7820,-12687,-11728,-766,245,-43
2374355010,-7536,-13080,-11391,-965,259,77
2374375000,-7756,-13711,-11675,-1183,267,227
2374394989,-7691,-14063,-12796,-1412,267,371
2374414978,-8017,-14579,-12382,-1627,251,501
2374434967,-8104,-14667,-13021,-1796,198,596
2374454956,-7754,-14744,-13197,-1924,131,660
2374474945,-7612,-14722,-13458,-2055,82,742
2374494934,-7669,-14535,-13623,-2192,60,828
2374514923,-7316,-14084,-14279,-2330,104,920
2374534912,-6986,-13557,-15105,-2471,180,1015
2374554901,-6888,-13234,-16168,-2622,191,1076
2374574890,-6697,-12706,-16325,-2763,193,1093
2374594879,-6163,-11613,-16965,-2889,206,1087
2374614868,-5767,-10456,-16568,-2993,215,1059
2374634857,-5619,-9485,-16056,-3078,195,1021
2374654846,-5227,-8258,-16278,-3179,187,1006
2374674835,-4942,-7244,-16281,-3286,187,1032
2374694824,-5360,-6517,-15899,-3378,198,1065
2374714813,-5576,-5567,-15353,-3478,206,1053
2374734802,-5315,-4247,-15447,-3575,77,995
2374754791,-5468,-3307,-14127,-3627,28,944
2374774780,-5357,-2044,-13568,-3634,42,896
2374794769,-5701,-1143,-12596,-3603,136,846
2374814758,-5314,-176,-11102,-3519,141,771
2374834747,-4785,1120,-10541,-3430,128,719
2374854736,-4916,2135,-9484,-3317,161,684
2374874725,-4373,3537,-8340,-3150,145,627
2374894714,-4665,4530,-8306,-2966,164,576
2374914703,-4394,5531,-6571,-2713,223,495
2374934692,-4185,6986,-6137,-2464,194,410
2374954681,-3896,8227,-4897,-2182,206,340
2374974670,-3837,9739,-3687,-1923,91,287
2374994659,-3840,10855,-2556,-1695,2,246
2375014648,-3753,11669,-3546,-1461,-106,212
2375034637,-4097,11681,-2593,-1181,-87,191
2375054626,-4359,11929,-1617,-865,-102,124
2375074615,-4177,12188,-915,-524,-123,45
2375094604,-4186,12450,-507,-185,-222,-28
2375114593,-4416,12322,-667,175,-288,-77
2375134582,-4334,12220,-1391,539,-347,-122
2375154571,-4678,11964,-1954,874,-376,-159
2375174560,-4910,11600,-1417,1210,-390,-212
2375194549,-4737,11236,-2342,1506,-460,-285
2375214538,-5004,10536,-2933,1749,-514,-348
2375234527,-5083,9731,-3871,1983,-456,-412
2375254516,-4927,8958,-5640,2237,-357,-459
2375274505,-5332,8003,-6301,2488,-333,-513
2375294494,-5749,7022,-7253,2736,-304,-623
2375314483,-4905,5946,-8089,3006,-289,-764
2375334472,-5050,4713,-10432,3155,-349,-847
2375354461,-6207,3535,-10487,3210,-265,-890
2375374450,-5644,2647,-8095,3247,-100,-952
2375394439,-6026,1655,-8770,3316,-45,-966
2375414428,-5389,194,-11494,3405,-6,-974
2375434417,-6379,-1580,-14239,3326,74,-959
2375454406,-7036,-3530,-12980,3289,205,-996
2375474395,-6372,-4096,-12184,3305,62,-1081
2375494384,-5688,-4540,-14941,3322,-141,-1128
2375514373,-7364,-5810,-16797,3280,2,-1105
2375534362,-7132,-8309,-11995,3294,185,-1099
2375554351,-6502,-9458,-10390,3234,-152,-1143
2375574340,-6419,-8819,-14968,3223,-452,-1201
2375594329,-7264,-9700,-17089,3250,-234,-1206
2375614318,-7700,-12985,-11982,3254,-38,-1227
2375634307,-6509,-15001,-8721,3175,-295,-1279
2375654296,-6530,-14850,-15331,3094,-467,-1282
2375674285,-7241,-15582,-17023,3026,-257,-1229
2375694274,-6638,-19431,-11537,2826,-163,-1171
2375714263,-4747,-21972,-7521,2441,-360,-1060
2375734252,-6341,-20083,-11246,2052,-408,-897
2375754241,-6635,-18082,-12531,1799,-257,-790
2375774230,-7019,-17389,-10743,1584,-258,-736
2375794219,-7373,-16702,-10322,1404,-398,-725
2375814208,-7350,-15237,-12146,1289,-475,-714
2375834197,-6747,-14051,-14398,1220,-320,-651
2375854187,-7506,-14407,-10059,1127,-55,-543
2375874176,-7496,-14441,-7945,976,-34,-452
2375894165,-6920,-13922,-7489,837,-86,-370
2375914154,-7692,-14027,-9140,697,-63,-262
2375934143,-7826,-14489,-9239,520,93,-130
2375954132,-8240,-15178,-9230,314,174,-18
2375974121,-8861,-15590,-10076,105,126,26
2375994110,-9158,-16409,-10573,-148,117,29
2376014099,-8270,-16897,-10166,-484,276,119
2376034088,-8524,-16842,-10412,-799,421,271
2376054077,-8861,-16270,-12615,-1082,504,401
2376074066,-8589,-16222,-13302,-1389,598,516
2376094055,-8457,-15895,-13431,-1670,721,665
2376114044,-8033,-15052,-14390,-1913,822,812
2376134033,-8078,-14775,-14252,-2142,848,924
2376154022,-7352,-14435,-14600,-2351,807,1007
2376174011,-7059,-13998,-15174,-2563,762,1096
2376194000,-6733,-13450,-14308,-2758,807,1206
2376213989,-6653,-13099,-14273,-2898,791,1290
2376233978,-6443,-12809,-13962,-3037,664,1323
2376253967,-6873,-12457,-14610,-3182,550,1332
2376273956,-6680,-12448,-15139,-3267,554,1313
2376293945,-6708,-12254,-15228,-3376,421,1265
2376313934,-6223,-11317,-15287,-3493,303,1217
2376333923,-6407,-10393,-14478,-3611,185,1168
2376353912,-6177,-9067,-15591,-3702,92,1113
2376373901,-5881,-7939,-15766,-3758,149,1068
2376393890,-5404,-6485,-15785,-3797,182,1024
2376413879,-5269,-4930,-15084,-3809,167,976
2376433868,-4685,-3756,-14108,-3761,14,940
2376453857,-4036,-2091,-12560,-3712,-267,933
2376473846,-4750,-878,-12891,-3660,-361,951
2376493835,-4993,-329,-13352,-3522,-172,927
2376513824,-4222,692,-11000,-3373,-66,840
2376533813,-4012,2545,-9077,-3268,-121,728
2376553802,-4393,4209,-8034,-3157,-125,652
2376573791,-3739,5788,-6055,-2982,-56,614
2376593780,-4189,7047,-5808,-2860,-101,615
2376613769,-4211,8129,-5534,-2697,-98,598
2376633758,-4566,9247,-5317,-2517,-205,552
2376653747,-4507,10343,-3774,-2298,-158,486
2376673736,-4179,11237,-1567,-2052,-36,402
2376693725,-3252,11872,-313,-1778,29,336
2376713714,-3360,11758,-48,-1476,8,305
2376733703,-3692,11763,686,-1106,-22,252
2376753692,-3709,12135,1155,-663,3,192
2376773681,-3777,12351,957,-168,29,133
2376793670,-3610,12481,1100,357,49,75
2376813659,-3497,12378,745,853,61,18
2376833648,-3643,11959,288,1291,9,-49
2376853637,-3433,11578,-99,1650,-65,-150
2376873626,-3157,11315,-542,1932,-126,-251
2376893615,-3129,11013,-1877,2166,-140,-334
2376913604,-3706,10196,-2946,2450,-92,-414
2376933593,-3469,9155,-3747,2783,-130,-536
2376953582,-3136,8081,-5133,3098,-262,-677
2376973571,-2651,6382,-5546,3379,-375,-799
2376993560,-3269,4114,-7430,3509,-618,-891
2377013549,-6227,1963,-10152,3465,-584,-966
2377033538,-5622,928,-8893,3500,-302,-1079
2377053527,-5105,28,-12999,3535,-377,-1117
2377073516,-6695,-1346,-12869,3645,-336,-1119
2377093505,-5877,-2567,-15135,3745,-268,-1183
2377113494,-6318,-4018,-14064,3785,-179,-1249
2377133483,-6774,-5462,-8290,3842,-230,-1387
2377153472,-6684,-6873,-12681,3818,-372,-1510
2377173461,-5752,-8424,-17139,3768,-403,-1528
2377193450,-7473,-11865,-10163,3739,-420,-1530
2377213439,-8391,-13335,-11101,3699,-550,-1596
2377233428,-7049,-12772,-15448,3662,-444,-1586
2377253417,-8310,-14573,-13465,3663,-265,-1492
2377273406,-8238,-17451,-10316,3636,-238,-1415
2377293395,-7687,-18391,-14073,3443,-391,-1355
2377313385,-8076,-18868,-15516,3211,-334,-1264
2377333374,-8831,-19436,-11648,3018,-123,-1143
2377353363,-8166,-19753,-9553,2820,-98,-1037
2377373352,-7508,-18887,-13878,2537,-63,-876
2377393341,-8315,-18409,-13182,2235,94,-722
2377413330,-9414,-18060,-11530,1941,105,-671
2377433319,-9383,-17091,-12123,1658,9,-717
2377453308,-8584,-16097,-14533,1410,-20,-730
2377473297,-8341,-15143,-14145,1189,91,-628
2377493286,-8636,-14579,-12769,992,231,-454
2377513275,-8851,-14198,-12365,763,301,-294
2377533264,-8551,-13709,-13314,443,348,-145
2377553253,-9095,-13590,-13347,63,393,-1
2377573242,-9264,-13693,-13641,-326,358,100
2377593231,-8865,-13747,-14083,-706,363,191
2377613220,-8672,-13900,-13981,-1074,373,299
2377633209,-8478,-14051,-13809,-1393,388,401
2377653198,-8201,-14297,-13453,-1672,400,499
2377673187,-7553,-14548,-13387,-1917,390,597
2377693176,-7187,-14796,-13564,-2118,367,693
2377713165,-7091,-15011,-13119,-2285,355,760
2377733154,-6734,-14968,-12535,-2434,305,782
2377753143,-6366,-14907,-12579,-2579,226,786
2377773132,-6280,-14770,-13064,-2703,220,802
2377793121,-6360,-14873,-12911,-2786,215,813
2377813110,-6211,-14632,-13099,-2867,179,812
2377833099,-6335,-14126,-13721,-2958,202,803
2377853088,-6270,-13513,-14467,-3037,288,792
2377873077,-6146,-13042,-14868,-3132,377,782
2377893066,-5911,-12333,-15128,-3263,353,769
2377913055,-5798,-10854,-15679,-3395,280,765
2377933044,-5442,-9129,-16262,-3482,341,773
2377953033,-5083,-7605,-15726,-3530,398,791
2377973022,-4966,-5956,-15395,-3587,335,799
2377993011,-4687,-4563,-15296,-3598,352,785
2378013000,-4658,-3331,-13904,-3570,419,754
2378032989,-4268,-2252,-13798,-3553,360,716
2378052978,-4399,-1347,-13010,-3527,286,680
2378072967,-4784,-428,-12349,-3474,279,633
2378092956,-4567,675,-11848,-3398,317,583
2378112945,-4206,1963,-10835,-3316,290,533
2378132934,-4557,3185,-10155,-3238,256,482
2378152923,-4081,4563,-9220,-3128,249,432
2378172912,-3843,5845,-8255,-3029,175,415
2378192901,-3867,7190,-7816,-2931,96,400
2378212890,-4402,8059,-6169,-2791,114,354
2378232879,-3814,9324,-5189,-2638,111,285
2378252868,-3604,10227,-3519,-2499,-4,237
2378272857,-3370,11379,-2805,-2330,-111,213
2378292846,-3863,11924,-2236,-2124,-84,211
2378312835,-3787,12282,-1749,-1856,4,187
2378332824,-3447,12597,-1303,-1546,-48,152
2378352813,-3531,12804,-668,-1198,-89,132
2378372802,-3387,12956,205,-815,-115,109
2378392791,-3683,13125,436,-450,-198,82
2378412780,-4032,12993,3,-95,-221,59
2378432769,-3916,12835,-670,252,-195,44
2378452758,-4053,12778,-1152,560,-172,13
2378472747,-4190,12824,-1245,830,-147,-54
2378492736,-3994,13103,-1769,1066,-219,-138
2378512725,-3658,13115,-2607,1273,-176,-188
2378532714,-3847,12897,-3461,1460,-107,-217
2378552703,-4048,12500,-3361,1682,-65,-269
2378572692,-3671,12060,-3416,1905,-65,-339
2378592681,-3673,11468,-4716,2102,-67,-387
2378612670,-4202,10309,-6004,2332,-24,-418
2378632659,-3871,9256,-4843,2570,-19,-487
2378652648,-3912,8380,-5495,2738,-168,-565
2378672637,-3702,7485,-6934,2913,-137,-615
2378692626,-4110,5879,-8194,3062,-38,-633
2378712615,-3985,4162,-6850,3257,-80,-697
2378732604,-4156,2858,-10401,3411,-321,-799
2378752593,-4283,1555,-12535,3564,-184,-867
2378772583,-4639,-243,-9989,3676,-30,-923
2378792572,-5029,-2285,-10891,3751,-278,-1002
2378812561,-5175,-3610,-14089,3765,-517,-1083
2378832550,-6318,-5165,-15239,3667,-253,-1073
2378852539,-5808,-6682,-12119,3604,35,-1011
2378872528,-5468,-7918,-12669,3564,-331,-979
2378892517,-6617,-9056,-17129,3475,-779,-996
2378912506,-7659,-10468,-17300,3373,-286,-941
2378932495,-7996,-12035,-12605,3291,116,-860
2378952484,-7855,-11476,-12498,3249,-121,-882
2378972473,-7199,-11194,-15225,3277,-336,-899
2378992462,-7427,-12786,-16549,3319,-170,-838
2379012451,-7672,-14634,-14681,3273,-12,-798
2379032440,-8033,-15465,-13670,3163,-166,-832
2379052429,-7764,-15080,-12500,3030,-356,-885
2379072418,-6964,-15251,-15451,2946,-310,-899
2379092407,-7329,-17122,-12523,2815,-16,-844
2379112396,-7076,-18640,-10146,2494,-23,-769
2379132385,-6484,-17497,-10893,2154,-154,-681
2379152374,-6488,-16418,-11998,1924,-135,-593
2379172363,-5990,-15742,-12284,1717,-98,-526
2379192352,-6389,-15703,-9975,1501,-77,-477
2379212341,-6592,-15720,-9727,1292,-89,-434
2379232330,-6440,-14925,-9811,1100,-45,-379
2379252319,-6332,-14282,-10297,955,-26,-315
2379272308,-5944,-14107,-8841,864,46,-265
2379292297,-5537,-14232,-6763,799,23,-239
2379312286,-5669,-14465,-6924,730,-181,-239
2379332275,-5597,-14462,-6831,665,-248,-251
2379352264,-5108,-14509,-6988,613,-179,-244
2379372253,-4156,-14609,-5594,560,2,-214
2379392242,-3910,-15390,-4782,476,73,-160
2379412231,-4690,-15898,-4311,359,43,-119
2379432220,-4828,-15977,-4146,255,22,-104
2379452209,-4725,-15962,-3909,166,4,-98
2379472198,-4275,-15863,-3489,99,6,-101
2379492187,-4207,-16010,-3760,58,-81,-107
2379512176,-4339,-16083,-3629,38,-72,-101
2379532165,-3919,-15529,-3387,52,43,-78
2379552154,-4377,-15490,-3069,78,-45,-75
2379572143,-4354,-15601,-2990,117,-93,-87
2379592132,-3729,-15394,-3080,150,52,-77
2379612121,-3787,-15431,-2550,167,116,-53
2379632110,-4290,-15726,-1965,183,52,-57
2379652099,-6087,-17178,-3367,151,38,-92
2379672088,-3574,-15559,-2470,102,263,-99
2379692077,-3221,-14657,-2919,148,147,-119
2379712066,-3165,-16032,-2983,159,-3,-125
2379732055,-2728,-17800,-3541,55,-77,-39
2379752044,-4099,-17066,-3036,-23,-53,34
2379772033,-4440,-14070,-2762,87,114,-11
2379792022,-3637,-16720,-4263,58,-140,-38
2379812011,-4472,-16421,-2935,-13,-85,-26
2379832000,-4094,-15733,-3437,-3,34,11
2379851989,-4323,-15837,-4175,-6,-82,5
2379871978,-4311,-16055,-3620,-29,-138,0
2379891967,-4309,-16141,-3659,-47,-155,2
2379911956,-4396,-15917,-4177,-73,-138,12
2379931945,-4222,-16061,-4132,-92,-197,22
2379951934,-4669,-16014,-4199,-139,-270,58
2379971923,-4478,-15436,-4135,-216,-212,71
2379991912,-4681,-15079,-4008,-284,-47,97
2380011901,-4954,-15099,-4271,-322,-73,156
2380031890,-4918,-16605,-4188,-349,-379,169
2380051879,-3358,-14829,-2765,-266,-692,242
2380071868,-3003,-14521,-1006,-159,-486,175
2380091857,-3361,-15085,-1857,-123,-428,124
2380111846,-2881,-15440,-1319,-56,-443,65
2380131835,-2169,-15486,-449,42,-352,1
2380151824,-3103,-15390,-835,130,-245,-21
2380171813,-3223,-15297,-1103,226,-103,-35
2380191802,-3004,-14883,-2163,269,-33,-58
2380211791,-3467,-15787,-680,351,-3,-45
2380231781,-6346,-17276,-1082,347,-289,-17
2380251770,-8449,-15943,-4036,179,-100,229
2380271759,-7796,-15619,-5687,12,120,197
2380291748,-6010,-15183,-5083,-4,40,1
2380311737,-6011,-14967,-4948,-74,-122,-6
2380331726,-5932,-15177,-4958,-114,-112,73
2380351715,-5207,-15148,-6124,-166,83,92
2380371704,-5207,-15148,-6124,-295,60,31
2380391693,-5055,-15795,-5217,-295,60,31
2380411682,-4145,-15430,-3957,-231,-58,68
2380431671,-3824,-15391,-3083,-132,195,23
2380451660,-1858,-15524,-1393,53,379,28
2380471649,-3514,-16824,-486,179,87,90
2380491638,-4418,-17563,-1773,196,138,71
2380511627,-4346,-16904,-3592,106,310,78
2380531616,-4858,-15997,-3966,49,78,78
2380551605,-6040,-15616,-3333,54,-196,35
2380571594,-6524,-15655,-3700,85,-353,34
2380591583,-7225,-15686,-4055,111,-412,95
2380611572,-8070,-15793,-3963,142,-144,184
2380631561,-6996,-15498,-4281,171,28,243
2380651550,-6838,-15422,-3047,149,-67,241
2380671539,-7576,-15750,-2196,100,46,233
2380691528,-6172,-16045,-3215,107,153,202
2380711517,-5696,-17266,-5517,101,214,155
2380731506,-5128,-18419,-5585,47,113,147
2380751495,-5995,-18780,-5153,-83,-32,240
2380771484,-6808,-18363,-2963,-259,-25,329
2380791473,-6356,-18158,-1192,-404,102,411
2380811462,-6175,-17762,-2162,-556,143,476
2380831451,-6587,-17524,-2139,-786,96,521
2380851440,-6162,-17214,-2532,-1063,-62,599
2380871429,-6790,-16993,-4251,-1294,-304,704
2380891418,-7927,-16691,-5068,-1479,-373,805
2380911407,-7917,-16396,-5630,-1608,-467,876
2380931396,-8450,-15962,-6057,-1717,-680,941
2380951385,-9471,-15434,-5846,-1790,-921,994
2380971374,-10767,-15120,-5771,-1801,-1108,1037
2380991363,-10020,-15187,-6099,-1740,-1209,1092
2381011352,-9429,-15193,-6166,-1625,-1144,1156
2381031341,-9517,-14704,-6208,-1541,-909,1229
2381051330,-10215,-14248,-6963,-1538,-845,1276
2381071319,-10944,-13821,-6274,-1533,-773,1310
2381091308,-10320,-13728,-5208,-1543,-721,1382
2381111297,-8910,-13286,-5160,-1549,-766,1484
2381131286,-9398,-12341,-5748,-1518,-754,1608
2381151275,-11018,-11593,-6141,-1477,-504,1720
2381171264,-10012,-10463,-6205,-1437,-165,1774
2381191253,-7325,-8526,-5670,-1423,-20,1789
2381211242,-5860,-5890,-5238,-1442,-129,1750
2381231231,-7085,-3219,-5012,-1429,-247,1656
2381251220,-8787,-1719,-5680,-1329,-227,1503
2381271209,-8057,-956,-6362,-1192,-48,1326
2381291198,-6840,-21,-6358,-1039,-79,1161
2381311187,-7005,694,-6922,-972,-133,1081
2381331176,-8925,260,-8837,-982,-100,1011
2381351165,-9666,-945,-8619,-976,-15,918
2381371154,-9065,-1606,-6840,-981,18,881
2381391143,-8505,-2080,-5848,-994,-224,889
2381411132,-8233,-1582,-5679,-1003,-511,888
2381431121,-9434,-691,-5783,-1020,-668,816
2381451110,-11413,681,-4153,-1004,-695,618
2381471099,-13959,2917,-4143,-941,-698,283
2381491088,-17482,4182,-6224,-791,-281,-126
2381511077,-17637,2341,-8094,-577,203,-475
2381531066,-17028,525,-7449,-440,320,-545
2381551055,-17395,262,-6396,-329,350,-357
2381571044,-17589,330,-5630,-204,355,-91
2381591033,-17231,386,-6049,-65,516,122
2381611022,-15953,438,-7323,86,917,248
2381631011,-14785,475,-8300,217,1292,297
2381651000,-14399,507,-8681,308,1684,316
2381670989,-13576,551,-8726,400,2125,317
2381690979,-12367,641,-8940,450,2333,302
2381710968,-11560,968,-8980,434,2184,279
2381730957,-10871,1198,-9017,413,1633,244
2381750946,-10413,1231,-9381,393,765,205
2381770935,-10865,1194,-9965,359,-137,175
2381790924,-12108,985,-11089,346,-631,138
2381810913,-12942,671,-12281,342,-529,88
2381830902,-13225,167,-12788,319,-125,48
2381850891,-12433,103,-12035,269,287,32
2381870880,-11821,130,-11493,195,478,44
2381890869,-11075,-143,-11771,135,357,71
2381910858,-10284,19,-12524,94,179,122
2381930847,-9584,528,-12804,106,200,154
2381950836,-9689,549,-12638,113,400,130
2381970825,-9620,267,-11766,115,544,56
2381990814,-9495,70,-11197,103,524,-28
2382010803,-9728,37,-11369,70,323,-107
2382030792,-10537,-40,-11448,52,35,-169
2382050781,-11471,-482,-11533,46,-206,-204
2382070770,-12254,-1318,-12273,48,-296,-198
2382090759,-12454,-1735,-12288,48,-217,-164
2382110748,-12997,-1494,-11922,8,-49,-122
2382130737,-12367,-988,-11585,-6,97,-73
2382150726,-11747,-509,-11816,-12,117,-21
2382170715,-11598,-112,-12130,-12,38,35
2382190704,-11531,217,-12049,10,-38,72
2382210693,-11413,328,-11882,25,-71,94
2382230682,-11086,342,-11647,43,-70,115
2382250671,-10826,188,-11566,70,-31,131
2382270660,-10684,49,-11991,79,39,136
2382290649,-10333,-29,-12044,93,67,111
2382310638,-10354,-166,-11826,89,52,73
2382330627,-10291,-284,-11587,75,32,30
2382350616,-10320,-348,-11350,72,6,-10
2382370605,-10765,-457,-11671,60,5,-40
2382390594,-10917,-727,-11889,67,2,-71
2382410583,-11029,-952,-11824,85,-26,-90
2382430572,-11544,-1099,-12111,69,-40,-89
2382450561,-11628,-1038,-12023,49,-23,-87
2382470550,-11664,-895,-11865,32,-21,-77
2382490539,-11703,-720,-11858,10,-25,-57
2382510528,-11597,-558,-11671,6,-48,-38
2382530517,-11702,-382,-11668,0,-64,-15
2382550506,-11669,-276,-11745,10,-40,5
2382570495,-11494,-223,-11524,36,5,22
2382590484,-11598,-195,-11718,41,39,43
2382610473,-11365,-144,-11802,43,45,52
2382630462,-11225,-131,-11718,43,6,54
2382650451,-11126,-279,-11753,44,-34,59
2382670440,-11139,-378,-11817,37,-19,60
2382690429,-11342,-465,-11946,13,16,51
2382710418,-11064,-474,-11790,3,32,30
2382730407,-10855,-519,-11655,0,14,12
2382750396,-11090,-562,-11635,-12,2,0
2382770385,-10983,-580,-11480,-12,13,-23
2382790374,-10870,-586,-11380,-5,7,-42
2382810363,-10898,-557,-11300,9,-12,-53
2382830352,-11155,-564,-11432,24,14,-58
2382850341,-11253,-504,-11716,29,56,-64
2382870330,-11091,-507,-11766,44,33,-78
2382890319,-11218,-480,-11659,45,-5,-82
2382910308,-11211,-467,-11656,47,-28,-85
2382930297,-11229,-483,-11802,50,-17,-87
2382950286,-11250,-630,-12048,54,23,-83
2382970275,-11334,-777,-12100,57,68,-74
2382990264,-11524,-908,-12035,47,74,-65
2383010253,-11461,-923,-11866,31,46,-53
2383030242,-11396,-909,-11892,9,-7,-37
2383050231,-11330,-930,-11866,-2,-37,-16
2383070220,-11479,-971,-11926,-9,-26,-4
2383090209,-11462,-1061,-11918,-12,16,-1
2383110198,-11286,-1064,-11665,-10,43,0
2383130187,-11263,-989,-11596,-18,18,4
2383150177,-11110,-861,-11462,-15,-19,8
2383170166,-11140,-777,-11395,-5,-47,8
2383190155,-11257,-725,-11504,7,-32,5
2383210144,-11245,-668,-11524,25,9,0
2383230133,-11362,-645,-11582,32,27,-1
2383250122,-11288,-603,-11578,37,19,-2
2383270111,-11219,-626,-11674,34,-13,-1
2383290100,-11275,-716,-11746,33,-31,1
2383310089,-11225,-727,-11811,35,-17,-2
2383330078,-11231,-762,-11931,30,4,-8
2383350067,-11239,-811,-11826,19,29,-13
2383370056,-11284,-877,-11760,2,16,-16
2383390045,-11116,-867,-11678,-7,-32,-17
2383410034,-11186,-857,-11694,-15,-72,-18
2383430023,-11368,-871,-11635,-20,-48,-23
2383450012,-11192,-826,-11424,-11,-4,-35
2383470001,-11165,-793,-11384,-2,-6,-41
2383489990,-11257,-744,-11332,8,-25,-44
2383509979,-11339,-785,-11364,23,-29,-45
2383529968,-11364,-890,-11501,37,-32,-39
2383549957,-11591,-991,-11618,43,-19,-29
2383569946,-11661,-937,-11738,38,12,-21
2383589935,-11403,-876,-11734,41,15,-17
2383609924,-11417,-955,-11796,38,-10,-9
2383629913,-11529,-1004,-11800,34,-7,1
2383649902,-11441,-943,-11771,27,3,3
2383669891,-11293,-866,-11763,17,-8,3
2383689880,-11284,-825,-11734,6,-38,5
2383709869,-11364,-843,-11608,-3,-50,0
2383729858,-11351,-891,-11540,-10,-38,-4
2383749847,-11324,-859,-11572,-10,-4,-1
2383769836,-11370,-866,-11620,0,23,-2
2383789825,-11288,-895,-11441,11,29,-9
2383809814,-11335,-909,-11451,14,20,-12
2383829803,-11395,-915,-11640,13,11,-12
2383849792,-11372,-845,-11650,15,10,-13
2383869781,-11444,-817,-11655,10,18,-11
2383889770,-11453,-841,-11674,3,17,-7
2383909759,-11334,-866,-11605,-2,-1,-4
2383929748,-11427,-904,-11631,-5,-3,2
2383949737,-11592,-1030,-11705,-10,22,5
2383969726,-11436,-1110,-11567,-11,36,3
2383989715,-11306,-1025,-11423,-13,20,4
2384009704,-11293,-939,-11415,-18,9,3
2384029693,-11242,-831,-11392,-15,13,-7
2384049682,-11088,-745,-11316,-1,16,-20
2384069671,-11160,-757,-11409,18,15,-27
2384089660,-11193,-802,-11536,36,20,-30
2384109649,-11310,-845,-11521,50,21,-30
2384129638,-11520,-879,-11724,42,21,-24
2384149627,-11556,-885,-11937,28,11,-18
2384169616,-11625,-920,-11921,15,4,-11
2384189605,-11601,-965,-11838,4,8,-1
2384209594,-11478,-913,-11699,-6,20,9
2384229583,-11394,-868,-11551,-13,18,13
2384249572,-11290,-893,-11406,-13,-3,19
2384269561,-11347,-954,-11481,-5,-12,25
2384289550,-11424,-1043,-11610,2,27,26
2384309539,-11176,-1073,-11500,19,58,19
2384329528,-11200,-1033,-11624,19,45,16
2384349517,-11178,-989,-11635,14,5,9
2384369506,-11342,-954,-11760,0,-17,6
2384389495,-11385,-939,-11796,-12,-8,2
2384409484,-11222,-877,-11623,-11,6,-5
2384429473,-11286,-914,-11618,-16,8,-7
2384449462,-11203,-878,-11506,-12,0,-13
2384469451,-11269,-814,-11490,-3,-4,-14
2384489440,-11400,-819,-11606,1,2,-14
2384509429,-11349,-807,-11552,10,16,-15
2384529418,-11336,-800,-11596,13,18,-17
2384549407,-11253,-818,-11618,14,7,-19
2384569396,-11380,-908,-11691,8,0,-17
2384589385,-11488,-992,-11740,2,6,-14
2384609375,-11418,-1036,-11764,-2,-1,-11
2384629364,-11448,-1024,-11633,-9,-6,-6
2384649353,-11352,-951,-11495,-12,-7,-7
2384669342,-11293,-952,-11481,-13,-12,-5
2384689331,-11374,-922,-11542,-7,-9,-2
2384709320,-11300,-949,-11483,7,0,-3
2384729309,-11298,-872,-11484,18,14,-4
2384749298,-11320,-828,-11553,20,24,-6
2384769287,-11295,-835,-11537,22,13,-10
2384789276,-11316,-841,-11556,21,-7,-11
2384809265,-11354,-880,-11680,20,-10,-13
2384829254,-11432,-961,-11678,18,3,-12
2384849243,-11464,-1005,-11664,14,13,-9
2384869232,-11483,-985,-11599,8,11,-6
2384889221,-11408,-944,-11501,7,-1,-7
2384909210,-11366,-896,-11509,10,-17,-3
2384929199,-11428,-876,-11545,13,-13,2
2384949188,-11424,-877,-11486,16,2,1
2384969177,-11349,-929,-11519,21,4,2
2384989166,-11393,-946,-11559,26,8,7
2385009155,-11437,-961,-11570,26,24,8
2385029144,-11326,-939,-11647,21,25,3
2385049133,-11254,-929,-11716,16,7,1
2385069122,-11219,-952,-11746,13,2,-2
2385089111,-11282,-1016,-11761,8,19,-9
2385109100,-11253,-1035,-11707,4,32,-16
2385129089,-11253,-980,-11640,-5,23,-18
2385149078,-11357,-954,-11635,-18,16,-18
2385169067,-11381,-926,-11547,-21,13,-20
2385189056,-11355,-907,-11450,-16,3,-20
2385209045,-11451,-908,-11437,-5,1,-17
2385229034,-11502,-906,-11480,6,19,-14
2385249023,-11445,-914,-11514,14,43,-12
2385269012,-11422,-927,-11626,19,51,-8
2385289001,-11441,-1024,-11612,25,51,-4
2385308990,-11407,-1061,-11709,23,57,4
2385328979,-11427,-1082,-11679,22,56,7
2385348968,-11272,-1105,-11556,18,61,6
2385368957,-11080,-1062,-11505,15,47,5
2385388946,-11132,-1026,-11713,13,6,3
2385408935,-11266,-1001,-11796,15,-2,-4
2385428924,-11150,-1006,-11656,23,47,-10
2385448913,-11208,-1007,-11728,25,50,-9
2385468902,-11326,-980,-11719,18,49,-8
2385488891,-11311,-940,-11742,11,29,-7
2385508880,-11304,-942,-11821,2,12,-4
2385528869,-11310,-945,-11772,-2,9,-4
2385548858,-11244,-980,-11635,-4,15,-6
2385568847,-11204,-985,-11537,-7,15,-7
2385588836,-11230,-1025,-11478,-7,11,-8
2385608825,-11260,-1103,-11627,1,10,-6
2385628814,-11167,-1108,-11610,17,10,-4
2385648803,-11114,-1039,-11579,28,14,-8
2385668792,-11066,-994,-11650,31,8,-13
2385688781,-11120,-974,-11771,34,8,-15
2385708770,-11178,-964,-11824,33,15,-15
2385728759,-11194,-1033,-12000,29,34,-14
2385748748,-11046,-1117,-12080,26,57,-15
2385768737,-11006,-1062,-11940,17,74,-22
2385788726,-11008,-1019,-11821,-1,50,-35
2385808715,-10986,-1028,-11788,-14,3,-42
2385828704,-11139,-1063,-11799,-23,-24,-39
2385848693,-11264,-1082,-11695,-25,-12,-43
2385868682,-11288,-1073,-11534,-22,1,-52
2385888671,-11363,-1156,-11545,-23,-13,-48
2385908660,-11399,-1146,-11552,-16,-34,-37
2385928649,-11449,-1090,-11590,-4,-17,-24
2385948638,-11451,-1075,-11675,10,30,-16
2385968627,-11324,-1130,-11698,20,45,-10
2385988616,-11307,-1080,-11722,25,24,1
2386008605,-11371,-1059,-11783,23,9,9
2386028594,-11332,-1105,-11798,17,8,12
2386048583,-11211,-1129,-11804,11,8,18
2386068572,-11156,-1141,-11831,8,5,20
2386088562,-11097,-1176,-11767,10,5,17
2386108551,-11124,-1159,-11737,4,7,14
2386128540,-11038,-1137,-11717,0,4,9
2386148529,-11025,-1066,-11707,1,4,3
2386168518,-11104,-1083,-11758,5,16,-2
2386188507,-11058,-1080,-11689,8,20,-10
2386208496,-11140,-1048,-11668,6,12,-13
2386228485,-11160,-1004,-11740,4,3,-18
2386248474,-11130,-1074,-11733,5,-5,-21
2386268463,-11100,-1112,-11704,8,-1,-20
2386288452,-11234,-1049,-11746,8,8,-22
2386308441,-11272,-1095,-11707,10,5,-28
2386328430,-11264,-1162,-11732,10,-4,-25
2386348419,-11306,-1147,-11791,8,-2,-18
2386368408,-11304,-1107,-11669,9,7,-18
2386388397,-11272,-1116,-11659,5,4,-16
2386408386,-11290,-1154,-11840,1,-5,-6
2386428375,-11326,-1186,-11845,3,0,1
2386448364,-11245,-1171,-11747,7,17,0
2386468353,-11169,-1196,-11675,3,16,-2
2386488342,-11181,-1219,-11669,-1,0,1
2386508331,-11169,-1189,-11724,3,-9,6
2386528320,-11197,-1149,-11724,8,2,5
2386548309,-11174,-1156,-11684,11,11,0
2386568298,-11155,-1133,-11714,9,7,-3
2386588287,-11169,-1084,-11769,8,-2,-4
2386608276,-11148,-1074,-11773,8,-6,-6
2386628265,-11146,-1089,-11731,7,1,-4
2386648254,-11186,-1117,-11720,3,8,-5
2386668243,-11090,-1133,-11679,5,7,-11
2386688232,-11167,-1188,-11772,7,3,-14
2386708221,-11156,-1195,-11718,9,7,-18
2386728210,-11126,-1180,-11661,5,9,-25
2386748199,-11133,-1213,-11692,1,8,-26
2386768188,-11243,-1182,-11721,-1,5,-25
2386788177,-11225,-1162,-11695,5,2,-27
2386808166,-11374,-1114,-11750,6,1,-24
2386828155,-11381,-1105,-11721,6,10,-21
2386848144,-11351,-1078,-11718,5,11,-17
2386868133,-11347,-1072,-11755,0,2,-10
2386888122,-11278,-1112,-11654,2,-6,-5
2386908111,-11239,-1167,-11667,5,-9,2
2386928100,-11339,-1178,-11714,6,1,5
2386948089,-11242,-1181,-11642,10,10,1
2386968078,-11162,-1205,-11622,10,2,1
2386988067,-11193,-1182,-11590,11,-8,1
2387008056,-11223,-1251,-11684,15,-7,0
2387028045,-11215,-1285,-11733,19,6,0
2387048034,-11202,-1243,-11694,21,15,-1
2387068023,-11270,-1214,-11792,17,17,-5
2387088012,-11252,-1197,-11791,12,8,-6
2387108001,-11262,-1167,-11756,6,3,-2
2387127990,-11222,-1128,-11800,0,13,1
2387147979,-11117,-1155,-11758,1,15,1
2387167968,-11155,-1195,-11739,1,13,-2
2387187957,-11160,-1196,-11721,-2,10,-7
2387207946,-11145,-1173,-11644,-4,0,-10
2387227935,-11227,-1190,-11684,-7,-1,-9
2387247924,-11259,-1162,-11680,-6,9,-11
2387267913,-11159,-1189,-11586,-2,16,-14
2387287902,-11101,-1190,-11566,2,4,-16
2387307891,-11204,-1205,-11616,7,-3,-16
2387327880,-11348,-1180,-11663,13,9,-18
2387347869,-11371,-1172,-11693,16,23,-20
2387367858,-11352,-1175,-11698,16,16,-17
2387387847,-11408,-1204,-11693,14,5,-9
2387407836,-11389,-1202,-11734,12,8,0
2387427825,-11363,-1195,-11775,10,18,7
2387447814,-11298,-1236,-11799,10,29,13
2387467803,-11220,-1265,-11733,9,26,15
2387487792,-11107,-1255,-11717,6,13,14
2387507781,-11078,-1191,-11666,5,3,13
2387527770,-11085,-1201,-11679,10,7,10
2387547760,-11127,-1164,-11802,14,29,7
2387567749,-11174,-1142,-11807,17,53,1
2387587738,-11151,-1153,-11723,16,51,-7
2387607727,-11117,-1143,-11683,8,14,-8
2387627716,-11137,-1131,-11728,5,-16,-6
2387647705,-11220,-1181,-11764,4,-9,-6
2387667694,-11151,-1194,-11714,9,14,-9
2387687683,-11163,-1175,-11728,7,14,-12
2387707672,-11175,-1203,-11722,9,-1,-14
2387727661,-11246,-1226,-11731,10,-10,-15
2387747650,-11272,-1206,-11705,11,-8,-11
2387767639,-11196,-1211,-11712,14,1,-7
2387787628,-11224,-1205,-11773,14,9,-4
2387807617,-11125,-1244,-11708,16,13,-8
2387827606,-11151,-1288,-11761,13,5,-7
2387847595,-11148,-1283,-11768,6,-4,-11
2387867584,-11138,-1288,-11723,2,-5,-17
2387887573,-11159,-1321,-11737,-2,-7,-20
2387907562,-11181,-1315,-11734,1,-7,-20
2387927551,-11278,-1321,-11754,3,8,-19
2387947540,-11247,-1266,-11702,3,23,-20
2387967529,-11200,-1184,-11740,1,15,-18
2387987518,-11244,-1159,-11777,-1,-2,-15
2388007507,-11294,-1173,-11710,-2,-1,-12
2388027496,-11317,-1207,-11727,-5,14,-9
2388047485,-11247,-1258,-11740,-7,20,-6
2388067474,-11249,-1268,-11696,-8,17,-3
2388087463,-11192,-1268,-11694,-4,14,-2
2388107452,-11132,-1289,-11649,0,13,-6
2388127441,-11142,-1270,-11609,2,10,-8
2388147430,-11125,-1273,-11678,5,8,-11
2388167419,-11218,-1240,-11735,6,14,-11
2388187408,-11302,-1235,-11726,7,23,-12
2388207397,-11229,-1175,-11759,6,15,-12
2388227386,-11233,-1165,-11755,2,2,-10
2388247375,-11247,-1226,-11754,0,6,-10
2388267364,-11230,-1293,-11738,0,16,-10
2388287353,-11128,-1304,-11695,2,10,-7
2388307342,-11111,-1267,-11652,1,2,-6
2388327331,-11152,-1261,-11712,0,9,-8
2388347320,-11072,-1246,-11749,3,19,-15
2388367309,-11017,-1248,-11766,6,14,-19
2388387298,-11006,-1239,-11765,7,8,-26
2388407287,-11071,-1271,-11784,4,12,-36
2388427276,-11077,-1295,-11746,2,11,-41
2388447265,-11236,-1316,-11859,-4,10,-38
2388467254,-11285,-1311,-11824,-7,10,-37
2388487243,-11308,-1325,-11741,-12,6,-35
2388507232,-11265,-1312,-11691,-13,-3,-29
2388527221,-11277,-1275,-11656,-11,-6,-21
2388547210,-11315,-1278,-11633,-5,9,-15
2388567199,-11300,-1288,-11650,3,25,-11
2388587188,-11219,-1253,-11699,10,19,-8
2388607177,-11219,-1306,-11692,14,7,-5
2388627166,-11234,-1379,-11719,16,6,-1
2388647155,-11199,-1362,-11713,16,14,3
2388667144,-11162,-1303,-11721,17,11,4
2388687133,-11139,-1286,-11778,18,2,4
2388707122,-11215,-1313,-11786,18,4,3
2388727111,-11189,-1277,-11749,14,11,-1
2388747100,-11115,-1248,-11764,9,9,-2
2388767089,-11116,-1268,-11773,4,4,0
2388787078,-11180,-1316,-11800,1,7,1
2388807067,-11146,-1332,-11760,-1,10,-4
2388827056,-11091,-1363,-11720,-1,4,-7
2388847045,-11133,-1413,-11738,-1,-1,-8
2388867034,-11143,-1452,-11721,2,3,-11
2388887023,-11133,-1400,-11669,3,13,-12
2388907012,-11108,-1360,-11695,2,19,-14
2388927001,-11130,-1289,-11742,4,19,-16
2388946990,-11148,-1321,-11770,6,14,-15
2388966979,-11193,-1321,-11743,5,13,-13
2388986968,-11194,-1297,-11739,3,14,-16
2389006958,-11169,-1264,-11753,2,10,-14
2389026947,-11216,-1272,-11804,0,4,-12
2389046936,-11275,-1335,-11792,0,10,-9
2389066925,-11267,-1379,-11773,-2,17,-5
2389086914,-11229,-1375,-11732,-3,13,-2
2389106903,-11190,-1359,-11647,-1,7,1
2389126892,-11169,-1319,-11642,2,2,4
2389146881,-11137,-1286,-11671,6,-1,5
2389166870,-11142,-1312,-11584,12,-4,4
2389186859,-11237,-1331,-11746,15,4,4
2389206848,-11231,-1351,-11771,22,13,2
2389226837,-11223,-1315,-11696,21,11,0
2389246826,-11144,-1307,-11786,14,-4,3
2389266815,-11067,-1257,-11797,11,-12,7
2389286804,-11052,-1255,-11781,12,3,2
2389306793,-10979,-1309,-11717,14,9,-8
2389326782,-11051,-1327,-11787,10,5,-10
2389346771,-11238,-1354,-11841,3,7,-13
2389366760,-11176,-1386,-11805,3,1,-19
2389386749,-11228,-1401,-11774,-2,-12,-15
2389406738,-11266,-1375,-11700,-7,-15,-11
2389426727,-11292,-1364,-11676,-8,-3,-7
2389446716,-11206,-1320,-11679,-4,8,-1
2389466705,-11161,-1279,-11621,0,9,-1
2389486694,-11115,-1306,-11637,6,5,-6
2389506683,-11060,-1357,-11757,13,4,-8
2389526672,-11004,-1339,-11777,16,4,-10
2389546661,-11116,-1363,-11755,13,6,-18
2389566650,-11175,-1414,-11750,3,3,-25
2389586639,-11242,-1442,-11753,-9,-3,-23
2389606628,-11386,-1400,-11763,-17,2,-18
2389626617,-11329,-1353,-11659,-17,10,-15
2389646606,-11224,-1327,-11624,-12,0,-11
2389666595,-11233,-1343,-11572,-2,-11,-5
2389686584,-11179,-1325,-11518,8,-6,-6
2389706573,-11062,-1255,-11685,15,7,-6
2389726562,-11073,-1236,-11752,21,14,-12
2389746551,-11121,-1290,-11774,22,12,-17
2389766540,-11219,-1354,-11881,14,13,-18
2389786529,-11204,-1359,-11815,9,30,-15
2389806518,-11130,-1303,-11780,3,24,-17
2389826507,-11199,-1354,-11756,-4,-7,-14
2389846496,-11335,-1521,-11700,-8,-26,-11
2389866485,-11341,-1563,-11625,-8,-12,-7
2389886474,-11278,-1533,-11539,-3,10,-5
2389906463,-11154,-1477,-11445,8,17,-6
2389926452,-11106,-1405,-11482,20,11,-6
2389946441,-11068,-1361,-11537,29,9,-6
2389966430,-11234,-1363,-11686,32,29,-6
2389986419,-11182,-1351,-11762,30,39,-12
2390006408,-11104,-1340,-11790,24,17,-19
2390026397,-11200,-1298,-11829,15,-4,-17
2390046386,-11180,-1261,-11821,14,-5,-19
2390066375,-11184,-1264,-11853,11,1,-17
2390086364,-11227,-1277,-11940,6,6,-12
2390106353,-11244,-1378,-11881,0,15,-10
2390126342,-11240,-1452,-11705,-5,10,-6
2390146331,-11272,-1411,-11767,-14,-2,1
2390166320,-11230,-1356,-11671,-15,-3,4
2390186309,-11157,-1376,-11624,-9,2,4
2390206298,-11080,-1440,-11609,0,9,3
2390226287,-11051,-1465,-11622,5,12,-1
2390246276,-11038,-1505,-11598,7,6,-8
2390266265,-11126,-1545,-11593,8,-8,-12
2390286254,-11205,-1550,-11713,9,-16,-10
2390306243,-11266,-1530,-11747,13,0,-9
2390326232,-11234,-1529,-11686,16,18,-11
2390346221,-11240,-1478,-11676,13,7,-12
2390366210,-11347,-1429,-11742,8,6,-9
2390386199,-11228,-1417,-11787,6,20,-4
2390406188,-11131,-1406,-11692,8,19,0
2390426177,-11143,-1399,-11730,7,11,-1
2390446166,-11164,-1336,-11776,5,14,-7
2390466156,-11111,-1338,-11750,3,12,-11
2390486145,-11155,-1361,-11759,0,1,-13
2390506134,-11298,-1373,-11699,-4,1,-16
2390526123,-11212,-1379,-11677,-5,1,-15
2390546112,-11215,-1396,-11682,-6,-3,-8
2390566101,-11338,-1417,-11625,-6,6,-6
2390586090,-11278,-1457,-11574,-3,10,-6
2390606079,-11238,-1432,-11664,1,-5,1
2390626068,-11301,-1438,-11705,8,-8,7
2390646057,-11281,-1501,-11626,14,6,5
2390666046,-11133,-1462,-11630,16,12,4
2390686035,-11156,-1447,-11682,13,11,4
2390706024,-11091,-1466,-11670,13,4,-1
2390726013,-11048,-1469,-11646,13,-6,-6
2390746002,-11122,-1429,-11714,13,2,-8
2390765991,-11104,-1414,-11672,16,14,-18
2390785980,-11120,-1450,-11666,13,12,-25
2390805969,-11142,-1433,-11745,9,-3,-24
2390825958,-11253,-1388,-11769,5,-4,-24
2390845947,-11324,-1424,-11664,3,5,-24
2390865936,-11310,-1419,-11782,4,9,-14
2390885925,-11310,-1441,-11819,8,14,-5
2390905914,-11198,-1429,-11684,14,16,-5
2390925903,-11149,-1415,-11678,12,13,-5
2390945892,-11164,-1347,-11733,12,6,-1
2390965881,-11291,-1244,-11539,13,0,6
2390985870,-11340,-1326,-11614,14,-11,13
2391005859,-11413,-1480,-11766,11,-9,20
2391025848,-11369,-1583,-11652,14,16,19
2391045837,-11180,-1610,-11616,13,45,15
2391065826,-11012,-1596,-11648,11,38,12
2391085815,-11035,-1573,-11666,13,9,8
2391105804,-11043,-1613,-11680,14,2,2
2391125793,-11135,-1603,-11696,6,25,-3
2391145782,-11038,-1507,-11672,2,35,-12
2391165771,-10989,-1457,-11702,4,15,-20
2391185760,-11065,-1457,-11684,7,0,-24
2391205749,-11096,-1460,-11699,11,4,-29
2391225738,-11140,-1445,-11726,11,11,-31
2391245727,-11196,-1412,-11683,10,6,-31
2391265716,-11216,-1378,-11793,8,-3,-30
2391285705,-11209,-1392,-11854,7,-6,-30
2391305694,-11261,-1460,-11773,4,-4,-25
2391325683,-11372,-1472,-11748,1,-13,-14
2391345672,-11373,-1457,-11794,-6,-13,-4
2391365661,-11374,-1441,-11778,-14,-7,6
2391385650,-11359,-1474,-11487,-3,15,13
2391405639,-11293,-1557,-11546,8,13,16
2391425628,-11246,-1515,-11660,10,19,19
2391445617,-11180,-1465,-11574,17,27,20
2391465606,-11234,-1505,-11643,21,14,22
2391485595,-11275,-1575,-11681,21,20,22
2391505584,-11206,-1549,-11636,16,32,20
2391525573,-11142,-1475,-11724,10,31,16
2391545562,-11082,-1446,-11728,10,17,10
2391565551,-11090,-1447,-11670,11,15,6
2391585540,-11122,-1450,-11665,10,21,3
2391605529,-11086,-1465,-11696,11,31,-1
2391625518,-11092,-1528,-11722,14,30,-3
2391645507,-11116,-1571,-11748,15,25,-5
2391665496,-11130,-1567,-11717,14,19,-8
2391685485,-11131,-1527,-11751,11,11,-11
2391705474,-11132,-1448,-11802,6,3,-10
2391725463,-11138,-1447,-11815,6,-4,-11
2391745452,-11168,-1475,-11793,3,3,-10
2391765441,-11161,-1474,-11742,0,12,-8
2391785430,-11152,-1468,-11783,-1,8,-4
2391805419,-11168,-1447,-11802,-2,-3,-2
2391825408,-11168,-1488,-11735,-2,-5,-2
2391845397,-11110,-1518,-11755,-2,-2,-4
2391865386,-11042,-1512,-11718,-2,-7,-5
2391885375,-11099,-1540,-11696,-4,-9,-5
2391905364,-11089,-1553,-11637,-3,-7,-10
2391925354,-11145,-1544,-11697,-1,-9,-12
2391945343,-11226,-1503,-11649,3,-10,-13
2391965332,-11249,-1435,-11649,7,-8,-13
2391985321,-11255,-1442,-11685,7,-6,-9
2392005310,-11272,-1453,-11659,7,-5,-7
2392025299,-11236,-1424,-11659,8,-2,-7
2392045288,-11255,-1417,-11684,8,3,-6
2392065277,-11216,-1438,-11701,10,6,-4
2392085266,-11190,-1458,-11687,10,5,-3
2392105255,-11154,-1481,-11720,11,3,-6
2392125244,-11086,-1526,-11725,9,5,-9
2392145233,-11013,-1499,-11662,7,1,-17
2392165222,-10991,-1526,-11582,3,-9,-25
2392185211,-11066,-1530,-11604,1,-24,-33
2392205200,-11167,-1575,-11723,5,-22,-35
2392225189,-11203,-1574,-11637,15,-4,-35
2392245178,-11281,-1575,-11641,17,16,-36
2392265167,-11276,-1563,-11676,13,14,-37
2392285156,-11284,-1485,-11682,9,-6,-32
2392305145,-11369,-1470,-11700,5,-15,-26
2392325134,-11344,-1538,-11624,6,-7,-23
2392345123,-11332,-1616,-11621,9,-4,-17
2392365112,-11337,-1617,-11670,12,0,-10
2392385101,-11342,-1607,-11718,15,10,-6
2392405090,-11314,-1593,-11601,16,16,-7
2392425079,-11384,-1594,-11630,11,11,-5
2392445068,-11396,-1582,-11654,11,4,1
2392465057,-11378,-1535,-11604,8,3,8
2392485046,-11325,-1604,-11622,4,5,12
2392505035,-11162,-1664,-11639,10,-5,16
2392525024,-11048,-1616,-11649,18,-5,19
2392545013,-10959,-1562,-11707,23,13,14
2392565002,-11030,-1579,-11736,24,38,2
2392584991,-11135,-1605,-11759,22,73,-12
2392604980,-11020,-1636,-11789,14,81,-20
2392624969,-10914,-1635,-11731,6,28,-22
2392644958,-11071,-1634,-11789,-2,-20,-25
2392664947,-11214,-1640,-11856,-9,-6,-37
2392684936,-11093,-1555,-11689,-11,16,-45
2392704925,-11176,-1583,-11486,-4,19,-36
2392724914,-11426,-1604,-11677,-6,-3,-27
2392744903,-11393,-1599,-11711,-7,3,-27
2392764892,-11305,-1627,-11632,-5,11,-19
2392784881,-11320,-1653,-11615,-3,6,-9
2392804870,-11323,-1671,-11564,-3,10,-3
2392824859,-11192,-1640,-11508,0,16,-2
2392844848,-11100,-1545,-11587,6,14,-1
2392864837,-11090,-1519,-11626,14,10,-5
2392884826,-11126,-1587,-11632,18,24,-7
2392904815,-11092,-1577,-11617,22,23,-5
2392924804,-11212,-1602,-11794,23,15,-5
2392944793,-11336,-1592,-11786,23,44,-9
2392964782,-11298,-1632,-11770,19,77,-10
2392984771,-11202,-1657,-11771,17,61,-1
2393004760,-11241,-1710,-11705,11,22,13
2393024749,-11177,-1706,-11661,17,3,16
2393044738,-11090,-1702,-11766,15,-5,16
2393064727,-11041,-1704,-11777,14,0,11
2393084716,-10964,-1698,-11662,19,0,7
2393104705,-11015,-1646,-11789,13,6,4
2393124694,-10973,-1624,-11781,10,9,-6
2393144683,-11085,-1617,-11765,6,1,-11
2393164672,-11107,-1622,-11750,4,-10,-13
2393184661,-11194,-1692,-11756,1,-14,-14
2393204650,-11240,-1723,-11687,-1,-2,-11
2393224639,-11254,-1676,-11617,0,4,-6
2393244628,-11294,-1635,-11678,-1,-5,1
2393264617,-11171,-1622,-11650,3,-13,3
2393284606,-11209,-1624,-11688,8,-6,4
2393304595,-11099,-1696,-11686,11,9,0
2393324584,-11101,-1715,-11629,10,13,-1
2393344573,-11092,-1678,-11705,5,4,0
2393364562,-11078,-1674,-11695,7,-9,-6
2393384552,-11201,-1685,-11680,8,-8,-7
2393404541,-11113,-1642,-11598,12,0,-9
2393424530,-11178,-1641,-11670,11,4,-7
2393444519,-11165,-1621,-11697,13,7,-8
2393464508,-11140,-1628,-11687,15,9,-10
2393484497,-11104,-1653,-11696,15,11,-11
2393504486,-11074,-1644,-11709,14,10,-18
2393524475,-11055,-1618,-11774,10,8,-22
2393544464,-11050,-1601,-11743,8,7,-28
2393564453,-11115,-1625,-11718,8,5,-35
2393584442,-11150,-1627,-11796,4,5,-35
2393604431,-11283,-1621,-11814,0,9,-34
2393624420,-11350,-1656,-11821,-4,21,-31
2393644409,-11306,-1742,-11796,-7,19,-24
2393664398,-11308,-1738,-11759,-11,7,-15
2393684387,-11316,-1767,-11693,-15,2,-5
2393704376,-11308,-1776,-11666,-19,13,3
2393724365,-11226,-1783,-11603,-18,17,8
2393744354,-11177,-1787,-11550,-13,13,14
2393764343,-11149,-1754,-11425,-7,13,13
2393784332,-11060,-1705,-11442,4,17,6
2393804321,-11004,-1694,-11594,15,20,4
2393824310,-11004,-1689,-11639,26,24,-2
2393844299,-11026,-1675,-11679,31,31,-9
2393864288,-11044,-1646,-11790,29,33,-16
2393884277,-11035,-1648,-11908,25,21,-20
2393904266,-11135,-1704,-11858,16,9,-21
2393924255,-11184,-1733,-11849,3,9,-19
2393944244,-11152,-1684,-11889,-5,17,-14
2393964233,-11127,-1663,-11742,-5,21,-11
2393984222,-11109,-1685,-11702,-6,18,-13
2394004211,-11098,-1706,-11658,-2,8,-13
2394024200,-11178,-1727,-11709,2,4,-10
2394044189,-11131,-1745,-11713,5,13,-9
2394064178,-11191,-1750,-11720,6,24,-8
2394084167,-11080,-1763,-11674,7,19,-5
2394104156,-11112,-1764,-11758,5,9,0
2394124145,-11101,-1767,-11766,4,7,-1
2394144134,-11075,-1771,-11747,7,9,-4
2394164123,-11107,-1754,-11747,7,12,-3
2394184112,-11026,-1743,-11719,9,11,-4
2394204101,-11060,-1722,-11714,7,12,-5
2394224090,-11124,-1712,-11759,3,13,-7
2394244079,-11153,-1729,-11761,2,9,-6
2394264068,-11157,-1723,-11658,2,2,-4
2394284057,-11071,-1696,-11618,2,0,-5
2394304046,-11018,-1619,-11635,7,2,-10
2394324035,-11085,-1661,-11711,14,1,-14
2394344024,-11123,-1711,-11754,20,1,-13
2394364013,-11140,-1772,-11808,20,8,-10
2394384002,-11109,-1756,-11802,16,12,-7
2394403991,-11184,-1716,-11730,6,4,-8
2394423980,-11164,-1773,-11612,1,-15,-2
2394443969,-11256,-1786,-11654,4,-25,9
2394463958,-11323,-1925,-11677,17,-6,14
2394483947,-11169,-1925,-11526,31,14,13
2394503936,-11123,-1841,-11575,36,15,17
2394523925,-11154,-1737,-11793,39,5,21
2394543914,-11175,-1747,-11793,37,0,21
2394563903,-11090,-1736,-11812,30,2,19
2394583892,-11017,-1729,-11820,22,4,15
2394603881,-10934,-1714,-11778,17,-6,8
2394623870,-10951,-1647,-11758,13,-13,4
2394643859,-11056,-1637,-11797,8,-12,-3
2394663848,-11059,-1702,-11850,5,-5,-7
2394683837,-11063,-1779,-11817,6,-5,-10
2394703826,-11132,-1846,-11727,1,-7,-13
2394723815,-11120,-1835,-11682,-5,-7,-18
2394743804,-11151,-1772,-11679,-9,-10,-19
2394763793,-11234,-1716,-11665,-8,-11,-16
2394783782,-11258,-1759,-11593,-4,-11,-16
2394803771,-11284,-1833,-11569,-1,-13,-12
2394823760,-11312,-1914,-11607,3,-13,-4
2394843750,-11303,-1883,-11588,6,-8,4
2394863739,-11225,-1765,-11615,9,-3,8
2394883728,-11199,-1717,-11678,12,-2,8
2394903717,-11110,-1704,-11644,14,-7,4
2394923706,-11120,-1725,-11674,13,-5,3
2394943695,-11133,-1698,-11688,13,0,2
2394963684,-11207,-1697,-11615,12,3,1
2394983673,-11196,-1737,-11668,9,-2,1
2395003662,-11259,-1790,-11689,11,-7,3
2395023651,-11340,-1775,-11644,15,0,6
2395043640,-11294,-1777,-11602,13,3,7
2395063629,-11248,-1774,-11603,7,-1,12
2395083618,-11233,-1757,-11652,7,-3,11
2395103607,-11184,-1774,-11639,8,6,8
2395123596,-11101,-1769,-11613,6,15,5
2395143585,-11013,-1708,-11598,7,9,-2
2395163574,-11036,-1688,-11610,11,-1,-10
2395183563,-11139,-1670,-11578,14,0,-18
2395203552,-11170,-1676,-11736,15,5,-20
2395223541,-11255,-1724,-11837,16,11,-19
2395243530,-11375,-1834,-11844,11,11,-17
2395263519,-11423,-1900,-11724,-3,3,-10
2395283508,-11441,-1937,-11679,-20,-6,1
2395303497,-11334,-1858,-11523,-27,-12,10
2395323486,-11236,-1782,-11374,-21,-11,13
2395343475,-11135,-1783,-11352,-6,-1,12
2395363464,-11037,-1683,-11333,15,14,7
2395383453,-10930,-1616,-11399,35,19,-3
2395403442,-11136,-1628,-11650,42,15,-12
2395423431,-11254,-1755,-11856,39,7,-17
2395443420,-11340,-1786,-11890,28,-5,-13
2395463409,-11411,-1796,-11847,11,-6,-5
2395483398,-11350,-1827,-11826,-7,-3,1
2395503387,-11334,-1855,-11697,-18,-10,8
2395523376,-11260,-1815,-11515,-18,-14,14
2395543365,-11163,-1786,-11482,-15,-7,14
2395563354,-11055,-1805,-11392,-4,2,7
2395583343,-11003,-1853,-11454,6,5,1
2395603332,-11137,-1859,-11540,12,5,-4
2395623321,-11156,-1809,-11577,13,10,-14
2395643310,-11209,-1746,-11650,8,6,-20
2395663299,-11302,-1721,-11711,2,-8,-21
2395683288,-11364,-1665,-11638,-2,-13,-20
2395703277,-11372,-1651,-11641,-5,-3,-16
2395723266,-11319,-1673,-11617,-4,7,-12
2395743255,-11379,-1693,-11588,-2,6,-10
2395763244,-11343,-1686,-11520,0,4,-4
2395783233,-11323,-1693,-11561,-2,7,2
2395803222,-11261,-1791,-11563,1,3,2
2395823211,-11282,-1870,-11525,5,6,4
2395843200,-11268,-1844,-11599,1,16,5
2395863189,-11122,-1798,-11550,0,11,-1
2395883178,-11094,-1768,-11522,2,-5,-7
2395903167,-11165,-1756,-11541,3,-4,-11
2395923156,-11233,-1733,-11586,2,7,-15
2395943145,-11181,-1724,-11628,4,6,-19
2395963134,-11279,-1718,-11617,6,1,-19
2395983123,-11325,-1784,-11620,5,8,-17
2396003112,-11353,-1802,-11608,3,14,-17
2396023101,-11312,-1813,-11554,2,7,-13
2396043090,-11374,-1801,-11581,-1,3,-7
2396063079,-11268,-1761,-11549,0,6,-8
2396083068,-11145,-1745,-11507,5,3,-11
2396103057,-11201,-1750,-11599,9,7,-8
2396123046,-11120,-1746,-11591,13,17,-12
2396143035,-11012,-1767,-11639,16,23,-24
2396163024,-11002,-1726,-11738,13,22,-33
2396183013,-11148,-1755,-11765,6,23,-44
2396203002,-11281,-1796,-11781,-5,20,-53
2396222991,-11404,-1829,-11754,-20,8,-48
2396242980,-11548,-1828,-11734,-31,3,-36
2396262969,-11489,-1834,-11576,-36,4,-26
2396282958,-11516,-1878,-11382,-34,7,-16
2396302947,-11353,-1877,-11314,-23,4,-7
2396322937,-11339,-1851,-11340,-9,5,2
2396342926,-11290,-1835,-11381,8,17,3
2396362915,-11270,-1851,-11499,20,27,6
2396382904,-11250,-1859,-11597,25,23,9
2396402893,-11240,-1881,-11663,22,18,11
2396422882,-11173,-1873,-11731,14,14,13
2396442871,-11128,-1914,-11770,6,13,13
2396462860,-11117,-1903,-11694,0,16,8
2396482849,-11076,-1860,-11556,-3,15,2
2396502838,-11047,-1775,-11578,-6,11,-5
2396522827,-11115,-1773,-11564,-1,6,-11
2396542816,-11217,-1758,-11489,4,7,-15
2396562805,-11269,-1737,-11556,9,12,-13
2396582794,-11280,-1731,-11650,12,16,-10
2396602783,-11324,-1750,-11658,11,22,-8
2396622772,-11306,-1776,-11682,9,23,-6
2396642761,-11243,-1793,-11660,5,9,-2
2396662750,-11256,-1758,-11683,3,4,1
2396682739,-11240,-1771,-11664,3,11,-1
2396702728,-11219,-1822,-11589,4,15,-1
2396722717,-11215,-1823,-11576,4,14,3
2396742706,-11234,-1810,-11607,5,14,5
2396762695,-11130,-1800,-11530,9,9,2
2396782684,-11190,-1821,-11592,12,11,1
2396802673,-11201,-1809,-11617,15,17,-1
2396822662,-11134,-1761,-11615,16,16,-2
2396842651,-11147,-1771,-11651,15,8,-4
2396862640,-11175,-1836,-11719,15,4,-6
2396882629,-11203,-1877,-11754,12,9,-6
2396902618,-11173,-1891,-11711,8,17,-6
2396922607,-11124,-1833,-11616,3,11,-9
2396942596,-11215,-1830,-11634,-2,3,-9
2396962585,-11180,-1830,-11598,2,4,-9
2396982574,-11176,-1771,-11553,6,11,-9
2397002563,-11128,-1778,-11604,11,13,-11
2397022552,-11087,-1835,-11675,16,8,-13
2397042541,-11128,-1866,-11690,15,3,-14
2397062530,-11155,-1889,-11719,9,0,-18
2397082519,-11117,-1894,-11746,4,-2,-24
2397102508,-11169,-1865,-11719,-3,-1,-26
2397122497,-11249,-1884,-11714,-8,-1,-24
2397142486,-11177,-1863,-11674,-7,-7,-24
2397162475,-11206,-1850,-11545,-6,-14,-21
2397182464,-11205,-1848,-11571,-4,-5,-22
2397202453,-11277,-1819,-11657,-1,2,-23
2397222442,-11349,-1859,-11616,2,-4,-19
2397242431,-11422,-1863,-11620,-1,-8,-11
2397262420,-11422,-1908,-11667,-4,-4,-5
2397282409,-11322,-1931,-11552,-3,-1,2
2397302398,-11273,-1911,-11500,0,-1,9
2397322387,-11227,-1799,-11496,3,4,10
2397342376,-11213,-1781,-11545,8,5,10
2397362365,-11257,-1840,-11671,15,4,13
2397382354,-11257,-1877,-11664,17,7,15
2397402343,-11222,-1876,-11660,14,12,14
2397422332,-11163,-1833,-11637,6,9,13
2397442321,-11133,-1798,-11590,3,-5,8
2397462310,-11165,-1800,-11618,1,-9,5
2397482299,-11170,-1817,-11604,2,-2,1
2397502288,-11216,-1875,-11613,3,6,-2
2397522277,-11185,-1875,-11604,4,6,-3
2397542266,-11260,-1830,-11596,1,4,-4
2397562255,-11275,-1784,-11553,-1,6,-5
2397582244,-11296,-1737,-11512,1,4,-5
2397602233,-11349,-1750,-11546,3,2,-2
2397622222,-11370,-1801,-11575,8,9,3
2397642211,-11352,-1839,-11597,12,20,8
2397662200,-11221,-1834,-11598,12,16,7
2397682189,-11175,-1846,-11668,9,1,7
2397702178,-11221,-1886,-11688,8,-1,6
2397722167,-11197,-1873,-11647,5,9,4
2397742156,-11150,-1833,-11609,2,11,1
2397762145,-11150,-1809,-11552,0,4,-2
2397782135,-11247,-1798,-11565,-4,-1,-3
2397802124,-11248,-1816,-11636,-2,4,-3
2397822113,-11194,-1824,-11548,5,7,-3
2397842102,-11197,-1803,-11548,7,5,-6
2397862091,-11270,-1850,-11614,7,1,-8
2397882080,-11385,-1909,-11699,5,2,-2
2397902069,-11308,-1867,-11631,4,6,4
2397922058,-11299,-1835,-11605,1,7,7
2397942047,-11252,-1831,-11580,-2,-5,6
2397962036,-11259,-1768,-11512,-2,-13,5
2397982025,-11269,-1734,-11514,1,-2,5
2398002014,-11237,-1747,-11561,6,7,4
2398022003,-11269,-1732,-11586,10,2,4
2398041992,-11258,-1767,-11637,12,-1,5
2398061981,-11264,-1810,-11721,9,8,4
2398081970,-11212,-1857,-11696,4,9,3
2398101959,-11299,-1903,-11643,-5,0,4
2398121948,-11302,-1860,-11611,-12,-1,5
2398141937,-11238,-1785,-11581,-14,3,3
2398161926,-11199,-1784,-11490,-11,3,-1
2398181915,-11236,-1837,-11432,-5,-3,-4
2398201904,-11275,-1837,-11463,0,-3,-3
2398221893,-11213,-1753,-11473,5,6,-3
2398241882,-11254,-1739,-11576,9,10,-6
2398261871,-11403,-1794,-11672,10,7,-5
2398281860,-11480,-1835,-11655,5,1,0
2398301849,-11446,-1767,-11539,-6,0,6
2398321838,-11310,-1737,-11513,-14,-1,8
2398341827,-11187,-1696,-11373,-7,1,6
2398361816,-11211,-1685,-11362,6,10,4
2398381805,-11177,-1720,-11370,19,21,1
2398401794,-11182,-1690,-11462,30,20,-6
2398421783,-11262,-1710,-11614,39,11,-9
2398441772,-11374,-1711,-11787,34,13,-7
2398461761,-11330,-1783,-11872,20,18,-5
2398481750,-11363,-1873,-11811,2,6,-3
2398501739,-11378,-1916,-11717,-14,-6,6
2398521728,-11389,-1849,-11541,-25,-6,12
2398541717,-11183,-1801,-11418,-22,-5,14
2398561706,-11016,-1784,-11336,-8,-7,10
2398581695,-11007,-1818,-11308,5,0,0
2398601684,-10901,-1706,-11372,16,7,-16
2398621673,-10943,-1622,-11577,23,4,-31
2398641662,-11103,-1702,-11646,26,-7,-47
2398661651,-11372,-1780,-11762,19,-3,-53
2398681640,-11515,-1738,-11782,5,8,-52
2398701629,-11599,-1761,-11767,-9,5,-45
2398721618,-11649,-1804,-11664,-20,-3,-30
2398741607,-11703,-1830,-11627,-24,-3,-11
2398761596,-11615,-1868,-11467,-25,5,5
2398781585,-11462,-1882,-11312,-19,5,16
2398801574,-11340,-1824,-11279,-9,1,24
2398821563,-11252,-1825,-11262,3,6,28
2398841552,-11180,-1856,-11348,19,22,26
2398861541,-11091,-1827,-11445,32,29,20
2398881530,-11081,-1789,-11533,38,22,9
2398901519,-11092,-1757,-11672,32,14,-1
2398921508,-11129,-1712,-11788,22,11,-11
2398941497,-11098,-1715,-11793,11,4,-18
2398961486,-11223,-1732,-11765,-3,6,-21
2398981475,-11181,-1745,-11674,-14,10,-26
2399001464,-11181,-1751,-11558,-18,0,-33
2399021453,-11306,-1788,-11581,-19,-5,-33
2399041442,-11298,-1791,-11516,-10,4,-33
2399061431,-11308,-1780,-11382,-3,19,-32
2399081420,-11313,-1820,-11416,0,23,-32
2399101409,-11454,-1873,-11454,1,14,-28
2399121398,-11493,-1914,-11449,4,5,-22
2399141387,-11461,-1847,-11425,7,14,-13
2399161376,-11385,-1843,-11448,14,22,-7
2399181365,-11355,-1860,-11483,21,18,-1
2399201354,-11404,-1813,-11498,23,18,6
2399221343,-11351,-1784,-11621,22,22,9
2399241333,-11292,-1818,-11703,22,19,13
2399261322,-11279,-1799,-11715,19,17,16
2399281311,-11217,-1811,-11691,13,16,15
2399301300,-11213,-1868,-11680,6,12,15
2399321289,-11159,-1872,-11601,0,10,14
2399341278,-11120,-1900,-11574,-1,15,11
2399361267,-11013,-1864,-11555,1,17,2
2399381256,-11004,-1857,-11585,4,11,-9
2399401245,-11063,-1847,-11560,5,9,-20
2399421234,-11148,-1824,-11565,4,9,-28
2399441223,-11320,-1853,-11617,1,11,-30
2399461212,-11404,-1838,-11622,0,11,-26
2399481201,-11418,-1825,-11642,0,10,-18
2399501190,-11338,-1829,-11553,0,11,-13
2399521179,-11319,-1835,-11587,-1,14,-10
2399541168,-11272,-1872,-11556,1,13,-5
2399561157,-11337,-1883,-11558,4,17,1
2399581146,-11245,-1838,-11539,6,21,3
2399601135,-11180,-1826,-11589,4,17,0
2399621124,-11172,-1881,-11578,6,8,-4
2399641113,-11148,-1876,-11571,7,10,-8
2399661102,-11158,-1817,-11610,7,14,-11
2399681091,-11198,-1813,-11611,9,12,-13
2399701080,-11270,-1872,-11643,11,5,-12
2399721069,-11301,-1889,-11665,10,11,-9
2399741058,-11233,-1885,-11607,7,13,-9
2399761047,-11160,-1874,-11607,3,4,-10
2399781036,-11227,-1850,-11687,0,0,-10
2399801025,-11262,-1819,-11632,-2,4,-13
2399821014,-11262,-1819,-11632,-2,0,-14
2399841003,-11217,-1858,-11652,-2,0,-14
2399860992,-11263,-1848,-11652,-3,-3,-12
2399880981,-11293,-1880,-11617,-5,0,-10
2399900970,-11272,-1929,-11544,-5,6,-9
2399920959,-11215,-1874,-11483,-2,9,-4
2399940948,-11270,-1852,-11515,2,7,-5
2399960937,-11278,-1886,-11509,6,1,-7
2399980926,-11269,-1939,-11558,8,-1,-4
2400000915,-11266,-1926,-11630,12,4,0
2400020904,-11234,-1897,-11629,15,15,-1
2400040893,-11161,-1877,-11588,10,10,-3
2400060882,-11236,-1824,-11599,5,-7,-3
2400080871,-11284,-1812,-11663,3,-10,-2
2400100860,-11268,-1819,-11615,6,3,-3
2400120849,-11263,-1860,-11542,6,7,-3
2400140838,-11254,-1850,-11568,6,-1,-1
2400160827,-11323,-1836,-11604,5,-4,0
2400180816,-11301,-1835,-11586,6,6,1
2400200805,-11249,-1840,-11570,8,10,2
2400220794,-11243,-1878,-11538,8,7,5
2400240783,-11230,-1889,-11569,6,4,4
2400260772,-11202,-1866,-11568,6,6,-1
2400280761,-11154,-1840,-11602,6,6,-5
2400300750,-11195,-1893,-11600,9,2,-6
2400320739,-11221,-1901,-11577,8,3,-6
2400340728,-11210,-1892,-11624,3,2,-9
2400360717,-11257,-1931,-11620,1,-1,-11
2400380706,-11291,-1934,-11554,1,1,-11
2400400695,-11302,-1877,-11524,-1,3,-9
2400420684,-11308,-1839,-11462,-1,-1,-8
2400440673,-11361,-1853,-11482,1,-2,-7
2400460662,-11337,-1839,-11530,10,1,-3
2400480651,-11335,-1828,-11569,13,7,3
2400500640,-11275,-1866,-11632,13,7,3
2400520629,-11251,-1920,-11654,10,3,4
2400540618,-11238,-1952,-11687,8,3,4
2400560607,-11203,-1918,-11629,4,5,3
2400580596,-11202,-1881,-11538,-4,2,-1
2400600585,-11303,-1840,-11546,-9,-4,-3
2400620574,-11289,-1807,-11509,-8,-10,0
2400640563,-11304,-1814,-11458,0,-3,1
2400660552,-11297,-1828,-11456,6,10,1
2400680541,-11229,-1844,-11485,9,7,1
2400700531,-11284,-1834,-11604,12,3,3
2400720520,-11319,-1829,-11646,11,8,2
2400740509,-11324,-1880,-11612,9,12,0
2400760498,-11293,-1896,-11596,1,5,0
2400780487,-11232,-1860,-11621,-8,-6,4
2400800476,-11221,-1842,-11573,-6,-2,2
2400820465,-11176,-1841,-11455,-1,9,-4
2400840454,-11210,-1894,-11424,2,5,-9
2400860443,-11269,-1885,-11450,5,-2,-10
2400880432,-11351,-1817,-11520,7,3,-9
2400900421,-11312,-1796,-11482,11,11,-11
2400920410,-11307,-1829,-11514,12,5,-10
2400940399,-11366,-1845,-11549,11,-3,-6
2400960388,-11377,-1852,-11641,11,7,-2
2400980377,-11360,-1839,-11650,8,16,0
2401000366,-11343,-1867,-11613,4,9,0
2401020355,-11292,-1841,-11589,1,-1,1
2401040344,-11293,-1848,-11556,-1,4,2
2401060333,-11272,-1856,-11455,-1,6,3
2401080322,-11288,-1826,-11450,1,-2,3
2401100311,-11339,-1829,-11493,6,0,3
2401120300,-11343,-1856,-11513,11,16,4
2401140289,-11315,-1844,-11525,11,22,4
2401160278,-11331,-1858,-11579,7,7,7
2401180267,-11344,-1874,-11593,5,-5,9
2401200256,-11297,-1901,-11578,5,2,7
2401220245,-11218,-1850,-11508,5,15,6
2401240234,-11238,-1817,-11502,3,13,3
2401260223,-11232,-1828,-11483,3,1,1
2401280212,-11304,-1806,-11529,2,0,1
2401300201,-11262,-1830,-11573,5,7,-2
2401320190,-11242,-1823,-11515,7,6,-6
2401340179,-11256,-1836,-11489,7,-1,-7
2401360168,-11261,-1910,-11576,6,-1,-9
2401380157,-11291,-1889,-11567,7,7,-8
2401400146,-11245,-1791,-11525,8,6,-12
2401420135,-11338,-1795,-11502,5,-5,-12
2401440124,-11343,-1842,-11504,3,-12,-11
2401460113,-11350,-1833,-11537,5,-7,-7
2401480102,-11358,-1799,-11518,8,9,-4
2401500091,-11288,-1784,-11517,9,14,-3
2401520080,-11267,-1817,-11524,11,3,-3
2401540069,-11313,-1871,-11580,10,-4,-3
2401560058,-11343,-1905,-11542,9,1,-2
2401580047,-11328,-1933,-11537,5,9,0
2401600036,-11284,-1862,-11483,2,9,-1
2401620025,-11306,-1834,-11459,2,-2,-4
2401640014,-11331,-1844,-11483,4,-1,-3
2401660003,-11348,-1825,-11489,10,9,-2
2401679992,-11313,-1775,-11445,14,18,-5
2401699981,-11273,-1807,-11490,13,16,-7
2401719970,-11333,-1811,-11569,12,12,-5
2401739959,-11373,-1856,-11601,10,14,-5
2401759948,-11330,-1864,-11504,6,20,-6
2401779937,-11272,-1857,-11516,1,16,-5
2401799926,-11301,-1881,-11552,1,5,-6
2401819915,-11301,-1879,-11492,4,11,-6
2401839904,-11253,-1875,-11444,9,21,-10
2401859893,-11215,-1898,-11431,11,18,-14
2401879882,-11262,-1907,-11449,13,7,-15
2401899871,-11314,-1901,-11504,14,9,-14
2401919860,-11368,-1910,-11559,15,17,-13
2401939849,-11338,-1900,-11547,13,21,-13
2401959838,-11327,-1907,-11525,10,16,-9
2401979827,-11279,-1879,-11589,12,14,-10
2401999816,-11279,-1915,-11620,15,14,-12
2402019805,-11263,-1904,-11535,13,19,-11
2402039794,-11316,-1894,-11579,7,23,-9
2402059783,-11309,-1884,-11609,4,17,-7
2402079772,-11396,-1879,-11542,3,10,-5
2402099761,-11371,-1870,-11492,4,13,-2
2402119750,-11302,-1869,-11521,6,15,0
2402139739,-11292,-1913,-11473,12,15,3
2402159729,-11303,-1916,-11522,15,17,7
2402179718,-11251,-1883,-11577,15,17,8
2402199707,-11245,-1918,-11637,16,11,3
2402219696,-11221,-1974,-11613,14,7,2
2402239685,-11276,-2020,-11548,9,10,4
2402259674,-11245,-1960,-11577,7,16,3
2402279663,-11284,-1894,-11578,6,13,2
2402299652,-11311,-1895,-11575,7,5,4
2402319641,-11381,-1880,-11576,8,7,8
2402339630,-11360,-1891,-11556,9,14,10
2402359619,-11292,-1880,-11526,9,13,14
2402379608,-11335,-1900,-11631,8,6,21
2402399597,-11316,-1953,-11577,9,13,24
2402419586,-11229,-1979,-11509,9,26,22
2402439575,-11102,-1965,-11505,6,19,21
2402459564,-11118,-1925,-11473,8,4,16
2402479553,-11098,-1877,-11462,12,6,8
2402499542,-11095,-1857,-11502,20,16,0
2402519531,-11186,-1906,-11567,25,18,-5
2402539520,-11271,-1886,-11591,24,15,-7
2402559509,-11337,-1875,-11617,17,16,-8
2402579498,-11398,-1864,-11678,11,16,-6
2402599487,-11405,-1842,-11611,9,13,0
2402619476,-11399,-1843,-11589,9,7,7
2402639465,-11407,-1831,-11597,11,12,14
2402659454,-11337,-1831,-11587,14,17,21
2402679443,-11319,-1803,-11627,14,21,28
2402699432,-11218,-1819,-11601,16,20,30
2402719421,-11171,-1803,-11649,14,17,29
2402739410,-11156,-1787,-11715,10,16,26
2402759399,-11144,-1820,-11728,7,17,22
2402779388,-11123,-1859,-11643,3,13,19
2402799377,-11108,-1844,-11620,-4,10,15
2402819366,-11116,-1808,-11634,-6,8,10
2402839355,-11113,-1862,-11622,-1,6,6
2402859344,-11164,-1921,-11589,3,8,2
2402879333,-11164,-1914,-11567,1,10,-4
2402899322,-11163,-1854,-11524,0,9,-7
2402919311,-11266,-1802,-11547,0,4,-5
2402939300,-11310,-1742,-11581,4,6,-5
2402959289,-11325,-1714,-11596,8,8,-4
2402979278,-11347,-1740,-11619,9,8,2
2402999267,-11361,-1764,-11645,9,5,6
2403019256,-11259,-1756,-11637,7,3,8
2403039245,-11189,-1798,-11639,4,-2,7
2403059234,-11162,-1838,-11622,1,1,6
2403079223,-11183,-1877,-11659,1,5,4
2403099212,-11131,-1883,-11575,3,4,1
2403119201,-11149,-1848,-11541,2,-3,-2
2403139190,-11196,-1832,-11501,1,-7,-7
2403159179,-11211,-1822,-11497,1,-5,-11
2403179168,-11236,-1794,-11483,5,5,-13
2403199157,-11210,-1791,-11530,10,6,-15
2403219146,-11303,-1832,-11578,13,0,-16
2403239135,-11366,-1849,-11619,12,-4,-14
2403259124,-11374,-1800,-11663,10,1,-8
2403279113,-11314,-1788,-11644,10,6,-6
2403299102,-11248,-1793,-11679,8,7,-5
2403319091,-11234,-1822,-11631,3,3,-4
2403339080,-11216,-1837,-11590,-1,1,-5
2403359069,-11237,-1858,-11613,-5,4,-6
2403379058,-11228,-1871,-11579,-5,10,-10
2403399047,-11250,-1876,-11531,-2,7,-10
2403419036,-11280,-1839,-11523,0,2,-10
2403439025,-11324,-1790,-11553,1,8,-9
2403459014,-11368,-1808,-11592,2,12,-6
2403479003,-11366,-1821,-11568,1,6,-2
2403498992,-11367,-1835,-11594,-1,5,3
2403518981,-11277,-1853,-11590,1,9,6
2403538970,-11225,-1831,-11519,3,12,6
2403558959,-11204,-1868,-11572,4,9,5
2403578948,-11225,-1868,-11567,4,7,5
2403598937,-11246,-1853,-11599,6,10,3
2403618927,-11228,-1821,-11602,4,15,1
2403638916,-11227,-1813,-11622,0,9,-3
2403658905,-11248,-1823,-11562,-1,-1,-4
2403678894,-11308,-1844,-11536,-3,0,-2
2403698883,-11269,-1846,-11530,-1,12,-2
2403718872,-11242,-1792,-11502,3,15,-3
2403738861,-11244,-1819,-11543,8,8,-4
2403758850,-11332,-1858,-11620,9,9,-3
2403778839,-11338,-1855,-11587,6,19,-4
2403798828,-11407,-1820,-11582,4,48,-1
2403818817,-11294,-1728,-11643,9,90,0
2403838806,-11083,-1739,-11572,16,99,-1
2403858795,-11098,-1820,-11546,20,48,2
2403878784,-11236,-1845,-11680,15,14,6
2403898773,-11224,-1862,-11771,7,12,7
2403918762,-11106,-1874,-11729,5,23,3
2403938751,-11093,-1868,-11654,6,21,-1
2403958740,-11114,-1846,-11668,6,29,-5
2403978729,-11076,-1833,-11631,5,21,-8
2403998718,-11188,-1772,-11671,6,-3,-6
2404018707,-11262,-1768,-11704,3,-6,-7
2404038696,-11225,-1784,-11682,1,12,-8
2404058685,-11235,-1804,-11689,-1,14,-4
2404078674,-11238,-1838,-11672,-3,6,1
2404098663,-11227,-1881,-11612,-5,4,1
2404118652,-11143,-1881,-11564,-2,4,0
2404138641,-11120,-1880,-11629,3,4,1
2404158630,-11194,-1866,-11712,6,18,-1
2404178619,-11189,-1856,-11667,8,35,-6
2404198608,-11313,-1815,-11769,10,80,-6
2404218597,-11175,-1791,-11751,20,170,-9
2404238586,-10819,-1728,-11449,25,180,-16
2404258575,-10809,-1745,-11551,21,86,-12
2404278564,-11076,-1791,-11834,19,3,-7
2404298553,-11240,-1813,-11956,19,16,-10
2404318542,-11200,-1858,-11953,19,87,-13
2404338531,-10981,-1839,-11787,11,100,-10
2404358520,-10921,-1871,-11734,3,51,-3
2404378509,-10999,-1879,-11758,-2,-9,4
2404398498,-11033,-1896,-11784,4,-13,7
2404418487,-10959,-1875,-11818,10,23,3
2404438476,-10846,-1853,-11822,15,44,-6
2404458465,-10879,-1864,-11808,15,30,-11
2404478454,-11006,-1904,-11883,11,30,-9
2404498443,-11023,-1867,-11925,5,59,-8
2404518432,-10900,-1831,-11824,7,65,-11
2404538421,-10876,-1845,-11798,6,37,-10
2404558410,-10928,-1831,-11799,8,15,-8
2404578399,-10972,-1844,-11917,9,8,-6
2404598388,-10993,-1879,-11893,12,20,-5
2404618377,-11010,-1889,-11885,11,37,-3
2404638366,-10931,-1865,-11916,9,48,-1
2404658355,-10835,-1857,-11829,7,42,-1
2404678344,-10832,-1847,-11829,4,11,-3
2404698333,-10910,-1897,-11920,6,0,-2
2404718322,-10886,-1896,-11902,8,16,-3
2404738311,-10781,-1896,-11905,8,22,-6
2404758300,-10866,-1925,-11871,4,11,-7
2404778289,-10903,-1915,-11927,1,6,-7
2404798278,-10848,-1913,-11929,3,9,-7
2404818267,-10907,-1881,-11820,6,11,-9
2404838256,-10865,-1854,-11812,5,10,-10
2404858245,-10907,-1812,-11877,6,8,-9
2404878234,-10877,-1847,-11871,9,9,-10
2404898223,-10871,-1835,-11894,10,13,-11
2404918212,-10862,-1846,-11882,9,7,-13
2404938201,-10897,-1911,-11957,8,3,-11
2404958190,-10974,-1906,-11976,7,15,-6
2404978179,-10890,-1906,-11912,9,19,-8
2404998168,-10859,-1933,-11900,5,7,-9
2405018157,-10900,-1958,-11891,-1,1,-4
2405038146,-10919,-1912,-11831,-1,7,-3
2405058135,-10798,-1863,-11812,3,8,-4
2405078125,-10797,-1898,-11846,10,3,-6
2405098114,-10818,-1903,-11899,15,14,-9
2405118103,-10769,-1881,-11869,18,24,-16
2405138092,-10845,-1886,-11978,14,15,-16
2405158081,-10864,-1867,-12017,7,1,-17
2405178070,-10990,-1878,-12049,0,5,-16
2405198059,-10909,-1891,-11924,-5,14,-16
2405218048,-10860,-1890,-11815,-7,1,-10
2405238037,-10887,-1845,-11882,-6,-3,-5
2405258026,-10812,-1887,-11816,3,9,-11
2405278015,-10867,-1901,-11820,8,18,-14
2405298004,-10840,-1953,-11878,10,18,-11
2405317993,-10844,-1970,-11923,10,11,-12
2405337982,-10819,-1980,-12002,6,9,-14
2405357971,-10861,-1986,-11991,0,8,-16
2405377960,-10909,-1961,-11888,-5,2,-15
2405397949,-10879,-1902,-11916,-4,-2,-11
2405417938,-10876,-1875,-11955,-2,8,-8
2405437927,-10844,-1937,-11885,2,13,-11
2405457916,-10867,-1982,-11871,-1,0,-12
2405477905,-10944,-2001,-11899,-5,-9,-8
